session_id,ax,ay,az,gx,gy,gz
1,0.442,-0.541,0.722,6.160,-4.200,-3.570
1,0.451,-0.513,0.762,1.890,-0.910,-1.260
1,0.449,-0.525,0.772,0.140,-4.550,0.000
1,0.464,-0.506,0.749,6.090,-3.710,2.520
1,0.448,-0.521,0.748,0.560,3.430,4.130
1,0.423,-0.525,0.803,0.630,2.310,4.620
1,0.418,-0.538,0.804,1.050,-5.180,3.640
1,0.424,-0.529,0.754,-3.570,-2.730,2.520
1,0.424,-0.513,0.752,-2.030,-0.210,4.550
1,0.401,-0.543,0.758,-1.190,-2.170,5.320
1,0.399,-0.524,0.772,-1.260,-0.490,6.020
1,0.385,-0.571,0.745,-0.980,-0.910,5.110
1,0.382,-0.583,0.742,1.820,2.520,1.750
1,0.376,-0.595,0.817,-3.150,5.320,1.470
1,0.363,-0.613,0.912,-2.380,-0.840,-2.310
1,0.375,-0.616,0.893,0.280,-12.740,-9.030
1,0.405,-0.611,0.871,-6.510,-17.290,-15.050
1,0.402,-0.636,0.874,-8.680,-24.220,-20.790
1,0.424,-0.638,0.854,-5.390,-32.550,-26.600
1,0.418,-0.662,0.890,7.910,-49.560,-35.840
1,0.361,-0.761,0.935,27.510,-83.020,-50.820
1,0.330,-0.739,0.804,34.440,-105.140,-78.330
1,0.433,-0.585,0.672,3.920,-87.710,-93.380
1,0.519,-0.483,0.765,13.860,-91.070,-92.120
1,0.427,-0.697,0.824,30.800,-114.380,-111.580
1,0.460,-0.509,0.738,33.040,-136.080,-136.220
1,0.583,-0.284,0.660,39.060,-157.290,-131.880
1,0.667,-0.254,0.409,27.790,-146.650,-134.330
1,0.704,-0.172,0.392,16.380,-124.670,-137.760
1,0.748,-0.021,0.505,36.470,-142.660,-119.560
1,0.701,-0.170,0.292,52.360,-157.220,-123.200
1,0.662,-0.157,0.142,44.310,-143.710,-152.740
1,0.842,0.317,0.170,71.400,-146.230,-132.090
1,0.660,0.072,0.125,91.840,-161.490,-134.540
1,0.654,0.282,-0.055,77.840,-172.690,-159.460
1,0.724,0.399,-0.250,61.390,-154.140,-125.860
1,0.613,0.338,-0.064,81.690,-151.480,-138.810
1,0.596,0.332,-0.440,92.820,-167.790,-155.120
1,0.585,0.486,-0.605,114.310,-149.310,-158.130
1,0.602,0.742,-0.682,106.470,-122.850,-142.450
1,0.530,0.738,-0.559,112.350,-123.620,-117.110
1,0.572,0.814,-0.942,72.240,-96.040,-91.280
1,0.574,0.884,-0.797,34.930,-54.600,-51.870
1,0.537,0.835,-0.704,17.780,-51.170,-28.000
1,0.537,0.713,-0.837,8.890,-40.320,-13.860
1,0.545,0.661,-0.837,7.560,-25.760,-7.000
1,0.544,0.616,-0.752,8.750,-9.940,-4.200
1,0.533,0.615,-0.692,5.740,-12.110,-4.200
1,0.549,0.651,-0.729,-6.860,-6.300,1.470
1,0.536,0.609,-0.726,-1.470,-1.890,2.940
2,0.643,-0.528,0.518,-7.000,-6.650,-6.300
2,0.645,-0.538,0.524,-5.180,-5.250,-4.060
2,0.650,-0.555,0.522,-3.710,-3.220,-5.040
2,0.669,-0.526,0.543,-0.560,-2.100,-2.660
2,0.678,-0.522,0.557,2.240,-2.730,1.400
2,0.672,-0.539,0.556,4.270,-3.710,0.910
2,0.662,-0.538,0.558,3.710,-4.270,2.800
2,0.654,-0.549,0.537,4.200,-4.760,1.960
2,0.654,-0.551,0.545,4.760,-3.290,2.450
2,0.654,-0.561,0.566,2.170,-2.380,0.420
2,0.656,-0.588,0.580,-1.190,-3.430,-3.500
2,0.668,-0.641,0.607,-5.880,-6.860,-14.070
2,0.698,-0.885,0.662,-18.340,-17.220,-45.010
2,0.676,-1.080,0.578,-60.410,-19.880,-129.360
2,0.643,-0.801,0.544,-123.130,-9.520,-198.240
2,0.636,-0.452,0.455,-115.570,7.000,-199.360
2,0.651,-0.636,0.465,-98.770,11.690,-221.550
2,0.644,-0.317,0.614,-99.680,21.770,-271.670
2,0.700,0.394,0.640,-57.610,15.960,-215.740
2,0.803,-0.024,0.491,-15.750,-0.560,-150.920
2,0.833,-0.298,0.326,-20.510,10.430,-161.350
2,0.795,0.014,0.467,-21.840,16.520,-173.810
2,0.770,0.189,0.445,3.010,20.580,-147.210
2,0.792,-0.033,0.381,10.850,30.590,-148.680
2,0.769,0.038,0.488,-19.950,34.790,-170.030
2,0.727,0.488,0.565,-21.350,30.240,-155.820
2,0.689,0.307,0.389,-10.920,34.930,-132.580
2,0.687,0.149,0.487,-27.510,49.490,-158.830
2,0.623,0.327,0.637,-40.880,48.370,-177.800
2,0.517,0.754,0.539,-11.760,52.710,-156.590
2,0.468,0.340,0.426,-8.820,92.890,-155.610
2,0.462,0.493,0.835,-18.270,91.280,-188.580
2,0.328,0.912,0.802,-3.150,82.040,-171.500
2,0.285,0.933,0.727,1.330,72.310,-116.340
2,0.290,0.747,0.883,12.390,66.220,-108.640
2,0.272,0.836,0.966,9.730,33.880,-85.820
2,0.208,0.945,0.863,12.250,14.980,-52.640
2,0.194,0.816,0.772,9.800,11.480,-31.780
2,0.202,0.778,0.780,12.250,7.070,-17.360
2,0.188,0.784,0.731,13.860,0.490,-4.550
2,0.185,0.747,0.701,14.140,0.560,5.250
2,0.193,0.711,0.732,7.210,-1.890,9.870
2,0.205,0.658,0.720,-3.570,-2.310,4.340
2,0.206,0.741,0.725,-2.870,-2.170,4.830
2,0.209,0.703,0.717,-4.270,-3.430,9.380
2,0.215,0.681,0.717,-0.280,-3.640,6.510
2,0.220,0.690,0.729,-1.470,-6.300,6.230
2,0.218,0.671,0.705,-2.240,-5.740,6.440
2,0.222,0.673,0.722,-0.910,-3.080,-0.770
2,0.220,0.692,0.736,-2.100,-3.290,0.350
3,0.593,-0.591,0.511,-19.390,-39.970,-15.190
3,0.594,-0.600,0.485,-15.820,-33.320,-12.040
3,0.602,-0.629,0.502,-12.320,-26.530,-10.080
3,0.615,-0.602,0.519,-7.070,-25.340,-2.730
3,0.620,-0.631,0.487,-6.300,-21.350,-3.220
3,0.628,-0.622,0.499,-3.640,-19.530,0.350
3,0.622,-0.675,0.496,-0.490,-22.960,-2.730
3,0.624,-0.718,0.516,-2.240,-26.180,-11.270
3,0.648,-0.758,0.536,-5.110,-32.690,-28.630
3,0.656,-0.910,0.572,-14.000,-41.790,-53.970
3,0.669,-0.921,0.526,-46.270,-42.420,-109.410
3,0.669,-0.798,0.409,-62.580,-24.360,-145.040
3,0.691,-0.554,0.462,-80.150,-14.840,-162.890
3,0.713,-0.439,0.396,-59.990,-16.940,-158.060
3,0.731,-0.555,0.305,-60.830,-5.250,-176.610
3,0.745,-0.379,0.350,-61.110,12.880,-199.500
3,0.775,-0.300,0.361,-30.870,15.190,-205.100
3,0.801,-0.155,0.368,-5.040,14.770,-211.960
3,0.820,-0.000,0.400,-1.680,12.460,-196.630
3,0.824,-0.137,0.350,-16.030,-1.190,-206.010
3,0.810,0.194,0.360,-23.100,14.490,-196.560
3,0.807,0.355,0.401,-7.350,18.130,-155.540
3,0.833,0.024,0.411,-1.330,11.760,-166.810
3,0.728,0.190,0.288,-20.580,20.230,-202.510
3,0.724,0.504,0.443,-42.700,20.160,-168.490
3,0.676,0.451,0.307,-39.060,29.050,-155.750
3,0.607,0.385,0.384,-27.300,47.110,-163.660
3,0.573,0.561,0.379,-20.790,46.830,-165.830
3,0.480,0.594,0.431,-23.940,59.920,-164.710
3,0.501,0.602,0.491,-53.340,86.660,-159.460
3,0.392,0.644,0.597,-44.240,75.110,-155.960
3,0.353,0.668,0.651,-29.540,82.460,-168.770
3,0.260,0.940,0.689,-27.230,84.140,-150.640
3,0.213,0.951,0.868,-14.770,72.450,-128.800
3,0.178,1.143,0.903,-14.980,42.420,-70.560
3,0.152,0.828,0.794,-13.160,25.550,-42.140
3,0.162,0.798,0.775,-2.170,16.450,-37.240
3,0.141,0.833,0.722,0.070,2.730,-23.870
3,0.122,0.823,0.670,7.280,2.100,-10.640
3,0.126,0.792,0.732,10.990,2.940,-6.650
3,0.128,0.757,0.713,6.090,-3.850,-0.280
3,0.126,0.743,0.668,5.460,-1.260,-2.520
3,0.130,0.765,0.691,4.480,-2.380,0.700
3,0.142,0.773,0.685,6.300,-5.670,3.290
3,0.124,0.755,0.657,5.880,-6.440,6.160
3,0.135,0.736,0.664,5.880,-3.220,2.870
3,0.135,0.748,0.699,3.710,-6.020,3.150
3,0.135,0.727,0.672,-2.870,-7.280,-0.840
3,0.131,0.718,0.662,-1.470,-3.500,-3.850
3,0.138,0.763,0.696,1.680,-3.150,-6.300
4,0.315,-0.905,0.475,-5.040,-8.680,1.330
4,0.315,-0.896,0.462,-8.680,-7.210,-3.990
4,0.325,-0.899,0.459,-10.080,-8.540,-10.220
4,0.326,-0.957,0.459,-9.170,-13.860,-24.710
4,0.331,-1.174,0.474,-21.070,-22.540,-58.520
4,0.310,-1.227,0.339,-47.880,-7.420,-125.160
4,0.389,-1.009,0.417,-61.880,10.780,-165.200
4,0.444,-0.914,0.431,-47.110,8.330,-182.070
4,0.448,-1.009,0.351,-71.470,-0.910,-212.100
4,0.480,-0.816,0.331,-57.540,12.040,-244.930
4,0.591,-0.485,0.511,-5.250,7.840,-243.530
4,0.690,-0.442,0.520,12.040,-16.450,-232.960
4,0.734,-0.212,0.363,1.470,-28.560,-212.590
4,0.812,-0.301,0.305,14.980,-22.610,-176.120
4,0.839,-0.239,0.374,14.210,-17.780,-175.560
4,0.835,-0.199,0.245,14.980,-5.040,-171.710
4,0.832,0.114,0.269,25.130,12.180,-150.360
4,0.867,-0.039,0.229,21.350,17.640,-129.150
4,0.904,-0.057,0.310,30.800,27.230,-136.430
4,0.880,0.221,0.407,30.870,25.060,-131.250
4,0.877,0.289,0.374,13.860,17.010,-98.630
4,0.887,0.191,0.352,6.370,14.350,-83.790
4,0.884,0.245,0.382,1.190,17.360,-88.550
4,0.868,0.366,0.420,-13.510,24.080,-68.740
4,0.858,0.321,0.415,-13.090,23.730,-63.980
4,0.864,0.304,0.461,-10.990,20.790,-65.380
4,0.843,0.340,0.455,-10.710,17.920,-67.900
4,0.827,0.347,0.470,-7.140,19.810,-69.930
4,0.825,0.393,0.506,-2.870,14.840,-64.400
4,0.826,0.262,0.513,-1.330,6.440,-81.900
4,0.754,0.495,0.495,-7.070,2.240,-80.570
4,0.721,0.472,0.450,-16.730,5.740,-75.180
4,0.714,0.452,0.486,-16.940,6.860,-81.060
4,0.682,0.616,0.527,-23.870,5.180,-76.930
4,0.659,0.589,0.481,-26.180,9.730,-59.220
4,0.666,0.492,0.513,-22.890,14.910,-61.250
4,0.670,0.474,0.582,-26.950,10.640,-77.000
4,0.583,0.706,0.550,-34.160,3.010,-71.890
4,0.536,0.543,0.457,-26.530,25.830,-72.590
4,0.570,0.482,0.629,-26.810,29.960,-89.810
4,0.485,0.344,0.468,-39.480,34.580,-122.990
4,0.435,0.788,0.724,-27.300,34.370,-131.670
4,0.385,0.848,0.680,-30.730,26.390,-98.700
4,0.386,0.701,0.641,-32.130,30.030,-82.530
4,0.309,0.621,0.635,-16.870,34.160,-107.520
4,0.243,1.022,0.680,-18.900,35.420,-67.760
4,0.258,0.842,0.725,-21.000,30.100,-41.930
4,0.267,0.689,0.771,-7.980,22.190,-42.840
4,0.239,0.763,0.769,-6.300,6.090,-39.690
4,0.200,0.855,0.712,-3.360,1.890,-23.380
5,0.494,-0.756,0.380,-2.310,-6.860,0.350
5,0.497,-0.811,0.397,-3.500,-7.630,3.430
5,0.492,-0.800,0.410,-2.730,-7.980,3.010
5,0.495,-0.837,0.421,-3.780,-9.450,1.890
5,0.491,-0.866,0.392,-5.530,-11.690,-4.340
5,0.481,-0.883,0.370,-8.330,-8.470,-15.330
5,0.512,-0.892,0.414,-12.880,-9.520,-26.740
5,0.520,-1.052,0.375,-33.040,-10.150,-57.120
5,0.497,-1.146,0.290,-77.770,8.540,-115.710
5,0.541,-0.839,0.343,-81.200,29.400,-146.230
5,0.569,-0.818,0.343,-56.000,22.470,-156.520
5,0.594,-0.773,0.310,-34.370,17.710,-166.320
5,0.637,-0.713,0.267,-41.300,24.990,-199.360
5,0.683,-0.528,0.384,-73.220,13.160,-205.800
5,0.711,-0.536,0.330,-61.740,9.870,-193.900
5,0.759,-0.432,0.300,-44.940,6.370,-197.750
5,0.824,-0.326,0.357,-38.850,3.920,-190.540
5,0.804,-0.422,0.139,-49.210,14.560,-200.970
5,0.786,-0.061,0.200,-16.170,29.610,-202.650
5,0.822,-0.029,0.273,-2.240,33.670,-193.340
5,0.849,0.030,0.325,-8.890,31.780,-187.600
5,0.837,0.239,0.304,-21.210,24.920,-163.870
5,0.826,0.227,0.374,-24.220,29.540,-159.110
5,0.870,0.415,0.425,-13.230,22.120,-123.550
5,0.843,0.233,0.357,-14.350,15.750,-125.300
5,0.799,0.194,0.333,-24.780,23.170,-143.920
5,0.757,0.567,0.474,-34.440,20.930,-139.790
5,0.746,0.615,0.427,-25.550,12.950,-101.990
5,0.751,0.310,0.361,-9.380,22.820,-118.860
5,0.710,0.268,0.411,-15.680,32.760,-154.560
5,0.647,0.874,0.628,-20.020,14.210,-148.260
5,0.574,0.765,0.428,-31.220,2.170,-98.350
5,0.549,0.343,0.324,-20.300,27.790,-129.500
5,0.532,0.734,0.635,-16.730,29.890,-152.880
5,0.449,0.960,0.551,-28.910,3.570,-103.460
5,0.408,0.548,0.423,-39.060,14.910,-108.220
5,0.372,0.443,0.486,-42.910,34.020,-140.980
5,0.338,1.305,0.830,-29.120,9.520,-93.800
5,0.286,0.857,0.514,-20.090,10.150,-61.740
5,0.303,0.823,0.645,-3.360,22.960,-67.130
5,0.307,0.942,0.761,-1.330,3.360,-52.360
5,0.239,0.924,0.594,-2.310,-9.590,-23.870
5,0.227,0.860,0.582,8.400,0.490,-18.340
5,0.250,0.851,0.622,8.050,-2.240,-11.060
5,0.235,0.886,0.577,1.610,-5.390,0.910
5,0.236,0.826,0.565,2.100,-2.170,7.630
5,0.252,0.807,0.589,0.070,-3.430,10.710
5,0.274,0.752,0.571,-0.980,-2.590,3.710
5,0.276,0.814,0.589,-3.220,-3.990,5.390
5,0.273,0.809,0.589,-1.540,-2.240,6.370
6,0.619,-0.725,0.284,-7.000,-16.870,7.210
6,0.594,-0.862,0.235,-9.170,-18.480,0.490
6,0.584,-0.831,0.204,-11.970,-14.490,-3.920
6,0.585,-0.858,0.199,-16.240,-9.940,-11.760
6,0.594,-0.865,0.195,-23.030,-5.320,-22.960
6,0.603,-1.059,0.157,-51.240,3.990,-56.700
6,0.607,-1.154,0.113,-108.850,22.680,-109.900
6,0.688,-0.607,0.257,-107.310,34.580,-119.350
6,0.719,-0.675,0.268,-66.010,15.890,-101.010
6,0.711,-0.871,0.075,-69.370,13.510,-123.270
6,0.717,-0.767,0.080,-82.530,30.520,-156.450
6,0.745,-0.526,0.115,-82.880,37.450,-159.250
6,0.784,-0.376,0.137,-78.610,32.760,-155.960
6,0.791,-0.443,0.041,-51.450,40.180,-159.530
6,0.844,-0.421,0.058,-34.930,47.530,-173.600
6,0.898,-0.143,0.211,-0.280,57.120,-169.960
6,0.927,0.066,0.350,1.750,31.150,-136.080
6,0.942,-0.087,0.188,-0.490,16.450,-120.330
6,0.953,-0.091,0.184,-14.560,18.690,-125.720
6,0.949,0.061,0.205,-24.850,13.720,-108.290
6,0.941,0.080,0.202,-36.190,12.390,-99.820
6,0.932,-0.048,0.188,-45.010,22.260,-106.540
6,0.930,0.136,0.244,-53.060,19.950,-117.040
6,0.936,0.228,0.283,-42.910,20.370,-96.040
6,0.930,0.241,0.284,-49.770,20.300,-94.920
6,0.924,0.276,0.295,-38.430,17.010,-89.250
6,0.903,0.249,0.274,-43.610,16.450,-92.120
6,0.882,0.287,0.327,-59.780,19.180,-101.990
6,0.869,0.462,0.395,-70.770,18.760,-89.180
6,0.838,0.390,0.331,-55.020,18.760,-85.820
6,0.811,0.349,0.319,-50.330,31.570,-98.490
6,0.803,0.518,0.492,-49.350,29.820,-94.710
6,0.790,0.526,0.439,-43.260,22.120,-79.800
6,0.778,0.420,0.423,-43.400,22.540,-78.120
6,0.730,0.455,0.478,-48.720,19.460,-88.200
6,0.641,0.693,0.480,-47.670,21.140,-69.370
6,0.622,0.510,0.402,-45.220,25.200,-58.520
6,0.620,0.408,0.447,-46.620,49.070,-79.310
6,0.610,0.595,0.646,-46.550,46.760,-87.010
6,0.511,0.743,0.574,-39.060,40.180,-66.640
6,0.493,0.532,0.494,-33.670,64.540,-67.340
6,0.511,0.732,0.797,-27.790,60.060,-68.880
6,0.494,0.922,0.867,-20.090,25.690,-30.520
6,0.447,0.688,0.661,-11.270,19.320,-9.940
6,0.483,0.672,0.801,-3.640,18.760,-9.170
6,0.468,0.665,0.752,-4.690,1.890,-0.630
6,0.447,0.690,0.709,4.760,2.660,3.430
6,0.454,0.635,0.715,6.020,1.820,7.350
6,0.459,0.603,0.681,2.170,0.700,6.580
6,0.464,0.632,0.709,2.940,-0.840,5.880
7,0.532,-0.720,0.386,-2.520,-35.070,-6.440
7,0.544,-0.718,0.388,-3.990,-25.690,-2.380
7,0.565,-0.755,0.410,-7.280,-23.520,-8.820
7,0.580,-0.774,0.416,-8.610,-21.840,-11.760
7,0.589,-0.809,0.410,-13.860,-20.300,-21.910
7,0.586,-0.948,0.400,-37.240,-17.500,-47.740
7,0.624,-0.915,0.415,-78.470,-13.790,-90.020
7,0.661,-0.758,0.403,-101.500,-11.200,-106.820
7,0.697,-0.640,0.386,-87.640,-14.560,-97.860
7,0.702,-0.656,0.321,-93.520,-18.130,-96.320
7,0.711,-0.705,0.259,-98.490,-16.240,-104.020
7,0.874,-0.646,0.249,-113.750,-15.890,-116.900
7,0.797,-0.603,0.203,-124.040,-14.700,-121.450
7,0.847,-0.608,0.222,-77.210,-1.750,-116.690
7,0.829,-0.550,0.112,-67.340,-1.470,-130.130
7,0.873,-0.405,0.221,-47.110,-6.230,-142.520
7,0.888,-0.302,0.146,-43.750,-13.930,-130.340
7,0.878,-0.293,0.056,-30.870,-7.140,-123.970
7,0.902,-0.286,0.040,-38.640,2.590,-126.000
7,0.914,-0.200,0.051,-57.890,7.000,-127.890
7,0.925,-0.114,0.068,-54.390,15.400,-122.290
7,0.912,-0.033,0.059,-55.580,20.930,-117.600
7,0.902,-0.094,-0.030,-62.440,38.080,-126.420
7,0.947,0.080,0.163,-73.500,42.210,-129.080
7,0.944,0.244,0.187,-76.860,35.770,-96.600
7,0.879,0.058,0.061,-61.950,52.430,-92.820
7,0.846,-0.021,0.107,-60.130,74.270,-128.940
7,0.864,0.289,0.319,-69.580,73.780,-125.650
7,0.802,0.268,0.237,-84.350,78.960,-123.970
7,0.803,0.265,0.403,-68.950,90.930,-132.440
7,0.736,0.311,0.376,-82.110,90.090,-135.030
7,0.711,0.526,0.569,-68.320,90.510,-142.520
7,0.618,0.503,0.517,-66.850,92.120,-126.350
7,0.594,0.409,0.541,-75.950,97.090,-129.360
7,0.600,0.666,0.858,-54.950,91.770,-130.690
7,0.497,0.781,0.765,-54.880,62.720,-85.190
7,0.415,0.324,0.530,-67.900,70.140,-88.690
7,0.398,0.270,0.646,-68.810,100.800,-129.990
7,0.376,0.931,1.098,-50.260,63.560,-104.090
7,0.322,0.701,0.868,-57.540,43.400,-62.860
7,0.278,0.617,0.841,-40.110,51.730,-56.140
7,0.290,0.663,1.036,-26.040,38.290,-44.380
7,0.256,0.684,0.978,-22.750,16.380,-25.410
7,0.225,0.610,0.897,-11.480,15.470,-14.840
7,0.225,0.544,0.874,-4.270,13.510,-10.500
7,0.237,0.577,0.911,-0.490,8.540,-7.210
7,0.232,0.565,0.874,3.010,3.780,-1.750
7,0.246,0.517,0.879,4.550,0.980,-2.590
7,0.244,0.542,0.879,-0.280,-3.780,0.700
7,0.253,0.562,0.878,0.420,-7.210,7.700
8,0.508,-0.817,0.400,1.750,-3.990,3.920
8,0.508,-0.795,0.397,1.330,-6.230,4.130
8,0.495,-0.839,0.388,0.840,-5.530,3.080
8,0.499,-0.817,0.385,-3.290,-4.760,-2.940
8,0.508,-0.846,0.392,-3.710,-7.700,-6.860
8,0.506,-0.916,0.396,-6.510,-8.120,-20.720
8,0.517,-0.916,0.391,-14.350,-9.450,-36.050
8,0.534,-0.860,0.389,-18.830,-4.550,-50.260
8,0.575,-0.839,0.426,-15.330,-5.740,-64.960
8,0.585,-0.914,0.395,-24.220,-14.000,-86.730
8,0.552,-0.918,0.311,-43.960,-10.710,-108.570
8,0.572,-0.721,0.293,-55.020,-2.520,-123.410
8,0.621,-0.626,0.280,-48.370,7.490,-117.670
8,0.659,-0.739,0.289,-50.680,17.500,-119.560
8,0.700,-0.575,0.312,-54.880,15.680,-126.770
8,0.736,-0.484,0.309,-50.400,17.710,-114.030
8,0.747,-0.569,0.290,-45.850,16.940,-120.610
8,0.776,-0.545,0.281,-47.670,12.460,-133.000
8,0.804,-0.495,0.260,-57.610,15.260,-135.940
8,0.813,-0.292,0.277,-62.160,20.160,-132.160
8,0.850,-0.312,0.278,-55.230,21.070,-127.050
8,0.883,-0.366,0.321,-55.860,23.380,-134.190
8,0.903,-0.166,0.370,-66.990,19.670,-142.380
8,0.913,0.050,0.321,-55.160,21.000,-105.770
8,0.918,-0.106,0.306,-48.230,23.940,-100.450
8,0.907,-0.137,0.344,-49.070,18.620,-118.440
8,0.937,0.097,0.353,-50.610,15.960,-103.180
8,0.919,0.078,0.332,-37.170,16.660,-85.400
8,0.884,-0.051,0.305,-24.640,18.410,-99.190
8,0.874,0.094,0.345,-23.380,22.470,-110.530
8,0.922,0.256,0.390,-34.370,20.090,-95.620
8,0.845,0.140,0.311,-32.130,33.600,-94.920
8,0.819,0.063,0.373,-39.340,39.900,-117.810
8,0.763,0.145,0.373,-50.820,49.840,-122.920
8,0.754,0.320,0.416,-68.880,65.730,-118.090
8,0.696,0.272,0.425,-64.540,87.570,-112.420
8,0.630,0.235,0.477,-51.730,112.980,-128.940
8,0.708,0.489,0.825,-50.750,111.020,-126.700
8,0.714,0.791,0.775,-22.120,92.750,-95.480
8,0.649,0.769,0.745,-6.370,74.900,-37.520
8,0.583,0.429,0.847,9.520,68.670,-38.710
8,0.549,0.408,0.847,16.450,55.090,-55.090
8,0.572,0.643,0.864,2.310,31.920,-44.730
8,0.534,0.655,0.799,-3.220,17.710,-17.920
8,0.505,0.553,0.786,6.160,13.440,-12.810
8,0.512,0.569,0.798,9.310,9.380,-7.420
8,0.532,0.571,0.804,1.330,-3.570,4.760
8,0.488,0.494,0.727,2.030,-5.670,10.220
8,0.488,0.454,0.735,1.400,-4.060,2.310
8,0.512,0.500,0.749,-2.520,-6.650,2.170
9,0.578,-0.869,0.339,-13.300,-9.590,-22.260
9,0.597,-0.856,0.343,-21.630,-16.800,-37.240
9,0.601,-0.827,0.323,-29.260,-19.530,-50.050
9,0.618,-0.808,0.299,-39.760,-22.890,-62.790
9,0.632,-0.637,0.238,-41.160,-22.820,-54.040
9,0.639,-0.690,0.222,-44.590,-26.950,-51.030
9,0.660,-0.854,0.221,-52.010,-29.540,-61.390
9,0.651,-0.932,0.139,-78.260,-22.750,-92.610
9,0.682,-0.789,0.107,-100.450,-7.980,-117.530
9,0.712,-0.690,0.062,-115.360,2.520,-135.660
9,0.753,-0.611,0.083,-118.300,12.180,-135.730
9,0.818,-0.451,0.132,-110.040,16.660,-139.650
9,0.874,-0.344,0.106,-84.000,11.480,-120.330
9,0.878,-0.438,0.036,-63.070,11.690,-121.380
9,0.878,-0.364,0.000,-57.540,13.650,-128.730
9,0.906,-0.224,0.014,-47.950,14.280,-116.410
9,0.925,-0.207,0.027,-39.060,13.020,-101.570
9,0.941,-0.170,0.003,-36.120,15.400,-99.050
9,0.946,-0.220,0.008,-40.110,22.400,-104.090
9,0.956,-0.067,0.073,-49.770,23.170,-111.230
9,0.989,0.109,0.124,-43.750,16.310,-86.800
9,0.954,-0.122,0.045,-39.900,17.780,-80.220
9,0.953,-0.060,0.040,-44.240,27.230,-95.340
9,0.982,0.182,0.185,-48.020,25.130,-97.230
9,0.967,0.176,0.137,-46.900,21.560,-72.240
9,0.953,0.124,0.109,-47.950,24.920,-78.050
9,0.935,0.049,0.128,-66.430,33.390,-88.970
9,0.922,0.256,0.230,-81.200,36.050,-92.260
9,0.905,0.355,0.208,-70.350,37.310,-75.880
9,0.867,0.228,0.204,-62.020,49.280,-82.740
9,0.871,0.231,0.304,-64.260,59.500,-98.280
9,0.858,0.471,0.374,-55.930,52.500,-92.470
9,0.778,0.475,0.286,-45.220,57.750,-73.290
9,0.756,0.315,0.310,-42.210,77.140,-79.380
9,0.758,0.546,0.484,-42.070,78.120,-87.710
9,0.762,0.742,0.534,-31.360,67.620,-46.690
9,0.679,0.384,0.417,-16.240,76.650,-49.000
9,0.646,0.256,0.483,-6.580,90.860,-100.800
9,0.652,0.546,0.721,-13.230,87.850,-121.520
9,0.623,0.666,0.662,-28.630,58.100,-78.050
9,0.554,0.580,0.648,-27.160,55.370,-82.180
9,0.566,0.811,0.804,-7.700,46.690,-74.690
9,0.520,0.764,0.776,-6.510,24.990,-40.250
9,0.477,0.648,0.711,-6.440,22.190,-34.860
9,0.456,0.671,0.724,-5.740,18.550,-29.190
9,0.466,0.745,0.764,-5.110,9.170,-18.620
9,0.444,0.692,0.719,-2.730,4.550,-1.540
9,0.422,0.604,0.679,-0.840,7.350,-2.730
9,0.446,0.658,0.719,2.940,6.580,-2.590
9,0.455,0.606,0.713,0.210,2.170,-2.730
10,0.171,-0.971,0.181,-5.390,-3.430,-4.690
10,0.167,-1.048,0.191,-9.030,-5.810,-9.240
10,0.189,-1.027,0.205,-20.510,-8.050,-19.950
10,0.224,-0.967,0.229,-16.730,-19.810,-15.610
10,0.172,-1.003,0.141,-14.770,-25.760,-15.400
10,0.164,-1.004,0.111,-17.920,-21.140,-17.500
10,0.171,-1.015,0.103,-20.160,-17.010,-16.240
10,0.166,-1.059,0.059,-30.240,-5.810,-25.970
10,0.127,-1.177,0.001,-51.520,13.860,-42.630
10,0.019,-1.367,-0.123,-70.140,50.960,-84.840
10,0.092,-1.120,-0.075,-65.100,99.820,-114.520
10,0.349,-0.866,0.181,-42.980,102.060,-117.740
10,0.374,-0.938,0.151,-27.090,63.910,-130.550
10,0.246,-1.156,-0.008,-37.730,52.500,-196.210
10,0.360,-0.908,0.052,-66.360,74.410,-202.860
10,0.477,-0.594,0.106,-90.160,84.420,-200.060
10,0.540,-0.842,0.047,-87.780,70.280,-209.090
10,0.597,-0.731,0.220,-68.320,63.070,-243.670
10,0.728,-0.568,0.140,-74.060,37.870,-236.460
10,0.735,-0.519,0.040,-85.120,36.750,-248.570
10,0.745,-0.386,-0.023,-81.760,55.160,-245.140
10,0.853,-0.058,0.117,-73.500,60.830,-207.340
10,0.935,0.097,0.154,-63.350,49.000,-149.240
10,0.942,-0.158,0.105,-57.540,46.130,-137.270
10,0.905,-0.200,0.109,-68.950,48.090,-167.650
10,0.928,0.185,0.264,-56.840,40.320,-165.690
10,0.922,0.247,0.166,-52.570,38.010,-125.160
10,0.851,0.045,0.080,-58.030,53.270,-130.200
10,0.786,0.082,0.149,-70.770,69.020,-162.470
10,0.809,0.362,0.347,-63.070,79.380,-177.870
10,0.837,0.494,0.439,-49.840,66.990,-159.040
10,0.731,0.433,0.316,-29.120,79.800,-145.460
10,0.640,0.390,0.336,-31.010,104.720,-162.470
10,0.656,0.550,0.592,-11.410,107.170,-172.060
10,0.538,0.686,0.520,-4.130,88.760,-153.580
10,0.407,0.508,0.413,-15.610,101.850,-152.670
10,0.335,0.396,0.521,-19.180,115.920,-197.470
10,0.308,0.920,0.807,3.780,107.100,-211.190
10,0.285,1.232,0.893,-3.990,62.650,-137.130
10,0.223,0.983,0.749,-3.010,31.220,-95.690
10,0.163,0.922,0.710,4.690,29.050,-79.940
10,0.173,1.010,0.786,5.250,12.390,-53.550
10,0.142,0.921,0.704,2.590,-5.880,-28.490
10,0.091,0.906,0.618,3.290,-2.310,-17.570
10,0.093,0.853,0.612,3.430,3.010,-9.940
10,0.117,0.886,0.639,7.490,3.430,-2.940
10,0.121,0.822,0.631,5.740,-0.280,6.370
10,0.142,0.804,0.633,1.260,-3.080,7.980
10,0.143,0.806,0.644,0.280,-7.140,8.750
10,0.152,0.855,0.644,4.830,-10.150,11.410
11,0.050,-0.897,0.473,-22.540,-16.380,-2.170
11,0.052,-0.913,0.492,-20.650,-16.660,-5.180
11,0.047,-0.996,0.497,-24.430,-21.210,-16.730
11,0.042,-1.100,0.494,-36.190,-24.780,-38.500
11,0.015,-1.201,0.462,-73.010,-20.440,-75.110
11,-0.020,-1.224,0.333,-117.810,-0.770,-116.970
11,0.073,-0.983,0.318,-115.780,29.750,-133.070
11,0.192,-0.946,0.317,-73.920,42.630,-136.570
11,0.247,-0.969,0.352,-22.050,36.050,-173.810
11,0.308,-0.926,0.343,-47.390,15.540,-196.140
11,0.363,-0.935,0.258,-58.170,20.160,-213.780
11,0.492,-0.672,0.277,-57.890,26.320,-199.640
11,0.558,-0.660,0.243,-47.180,25.270,-180.040
11,0.588,-0.801,0.266,-27.090,23.450,-183.120
11,0.625,-0.795,0.237,-42.980,13.020,-211.260
11,0.735,-0.341,0.251,-14.700,10.920,-177.450
11,0.765,-0.517,0.174,-14.000,14.910,-162.890
11,0.750,-0.572,0.213,-22.330,18.410,-175.000
11,0.774,-0.435,0.216,-34.370,25.410,-198.870
11,0.833,-0.216,0.258,-59.710,32.620,-188.650
11,0.858,-0.192,0.277,-87.430,37.660,-186.410
11,0.854,-0.084,0.227,-103.040,49.490,-196.210
11,0.885,0.029,0.319,-91.700,56.910,-180.880
11,0.850,0.032,0.327,-81.760,62.650,-175.770
11,0.789,0.045,0.288,-63.560,82.880,-178.640
11,0.831,0.244,0.448,-66.990,79.240,-170.730
11,0.788,0.284,0.411,-43.820,73.780,-149.380
11,0.718,0.128,0.477,-31.500,85.330,-143.220
11,0.700,0.358,0.526,-21.910,95.550,-140.910
11,0.657,0.373,0.584,-22.890,93.030,-136.780
11,0.612,0.414,0.678,-24.640,83.720,-134.540
11,0.547,0.418,0.649,-22.680,90.160,-139.790
11,0.503,0.547,0.733,-6.160,93.520,-134.680
11,0.384,0.456,0.665,-0.210,78.400,-147.630
11,0.328,0.587,0.500,16.450,85.820,-156.450
11,0.336,0.774,0.896,20.790,75.320,-157.220
11,0.296,0.958,0.928,39.060,60.620,-126.420
11,0.199,0.894,0.844,18.480,38.780,-92.260
11,0.167,0.812,0.821,23.310,33.810,-76.860
11,0.168,0.843,0.843,24.150,18.760,-61.040
11,0.135,0.882,0.803,11.690,-0.420,-33.600
11,0.106,0.837,0.735,11.410,-1.540,-17.010
11,0.118,0.873,0.752,8.260,-2.030,-0.210
11,0.123,0.844,0.729,-1.540,-4.830,22.470
11,0.141,0.818,0.722,-9.240,-5.530,37.450
11,0.157,0.735,0.731,-17.640,-5.460,48.300
11,0.198,0.733,0.773,-21.000,-7.420,55.160
11,0.213,0.706,0.818,-34.930,-14.980,60.900
11,0.227,0.728,0.765,-51.940,-10.570,73.570
11,0.215,0.766,0.702,-83.790,-6.650,102.200
12,0.257,-0.920,0.376,-5.180,-9.100,2.310
12,0.242,-0.892,0.366,-2.240,-6.370,1.750
12,0.248,-0.909,0.380,0.350,-6.020,3.220
12,0.234,-0.949,0.396,1.050,-6.580,-0.210
12,0.232,-1.027,0.416,4.830,-7.280,-16.800
12,0.204,-1.096,0.412,-7.700,-5.950,-50.120
12,0.228,-1.011,0.299,-42.210,9.590,-66.570
12,0.248,-1.017,0.351,-79.590,25.690,-77.910
12,0.221,-1.112,0.344,-74.270,43.610,-117.390
12,0.380,-0.840,0.488,-227.010,57.750,-145.390
12,0.453,-0.833,0.347,-43.540,83.440,-164.080
12,0.455,-0.926,0.334,-36.050,60.340,-180.740
12,0.500,-0.893,0.326,-40.530,45.640,-235.060
12,0.576,-0.485,0.219,27.720,35.420,-213.570
12,0.659,-0.607,0.340,29.960,16.170,-179.830
12,0.667,-0.523,0.359,4.060,-0.700,-181.090
12,0.740,-0.456,0.309,-19.810,-5.740,-180.460
12,0.779,-0.366,0.244,-22.260,4.130,-159.040
12,0.784,-0.439,0.288,-85.890,3.990,-182.770
12,0.806,-0.406,0.407,-131.110,-11.060,-246.260
12,0.898,0.049,0.222,-50.190,-7.070,-205.800
12,0.878,-0.152,0.144,-92.820,17.430,-191.240
12,0.913,0.047,0.255,-82.670,41.650,-177.380
12,0.821,-0.046,0.312,-136.780,40.600,-217.630
12,0.844,-0.020,0.356,-112.630,68.950,-179.760
12,0.838,0.308,0.353,-72.170,89.530,-175.350
12,0.802,0.366,0.403,-55.720,91.140,-144.900
12,0.724,0.268,0.398,-40.250,107.380,-133.910
12,0.675,0.187,0.522,-7.980,110.600,-154.000
12,0.628,0.379,0.566,18.270,118.580,-178.780
12,0.624,0.738,0.686,19.320,102.410,-136.640
12,0.518,0.488,0.606,24.150,106.190,-110.390
12,0.401,0.178,0.488,29.680,107.520,-165.620
12,0.310,0.346,0.645,13.300,119.000,-216.790
12,0.249,0.723,0.758,-15.400,100.520,-207.620
12,0.162,0.797,0.864,-47.880,76.020,-198.800
12,0.073,0.992,0.909,-7.420,67.620,-156.380
12,0.022,1.008,0.931,12.460,55.300,-120.750
12,-0.016,1.015,0.901,24.220,39.620,-78.540
12,-0.020,0.888,0.885,6.440,13.580,-44.450
12,-0.051,0.784,0.841,5.950,-2.730,-32.340
12,-0.068,0.852,0.793,8.120,-12.250,-14.980
12,-0.081,0.881,0.748,-4.270,-15.050,9.170
12,-0.062,0.843,0.727,-8.680,-14.420,31.780
12,-0.037,0.756,0.717,-9.590,-14.560,40.390
12,-0.009,0.638,0.683,-9.170,-10.850,31.500
12,0.039,0.623,0.757,-5.880,-10.710,21.420
12,0.065,0.643,0.786,1.330,-22.190,7.070
12,0.067,0.689,0.767,-1.960,-24.500,4.480
12,0.064,0.739,0.753,-8.470,-23.730,8.960
13,-0.012,-0.881,0.507,-11.620,-13.230,4.620
13,-0.012,-0.876,0.498,-11.690,-14.000,6.720
13,-0.026,-0.889,0.498,-12.040,-14.070,5.600
13,-0.038,-0.913,0.497,-10.430,-12.950,3.640
13,-0.003,-0.888,0.529,-12.040,-13.370,3.570
13,-0.030,-0.982,0.545,-17.780,-20.160,-5.670
13,-0.077,-1.056,0.511,-26.110,-20.930,-27.300
13,-0.074,-1.097,0.475,-48.860,-7.630,-59.500
13,-0.028,-1.095,0.536,-82.180,10.080,-83.650
13,0.039,-1.151,0.356,-87.920,45.780,-110.740
13,0.019,-1.021,0.593,-35.840,9.100,-130.270
13,0.152,-0.895,0.517,-58.030,-0.980,-135.310
13,0.190,-1.001,0.349,-42.840,-13.300,-117.460
13,0.111,-0.936,0.347,-7.560,-19.670,-131.600
13,0.164,-1.010,0.270,-18.550,-10.360,-154.280
13,0.380,-0.591,0.293,-25.690,14.210,-150.850
13,0.453,-0.797,0.313,-14.770,-1.750,-139.020
13,0.418,-0.894,0.305,-2.100,-15.820,-188.580
13,0.451,-0.905,0.260,-42.770,-15.820,-217.770
13,0.641,-0.576,0.302,-63.350,-15.960,-197.400
13,0.678,-0.517,0.259,-81.130,-20.650,-172.340
13,0.668,-0.601,0.179,-76.020,-17.640,-188.090
13,0.746,-0.500,0.144,-55.160,-13.930,-189.350
13,0.842,-0.312,0.182,-91.840,-8.610,-172.480
13,0.883,-0.203,0.096,-77.000,0.980,-140.630
13,0.874,-0.365,0.121,-62.300,3.360,-146.580
13,0.876,-0.391,0.147,-72.940,2.030,-167.790
13,0.959,0.009,0.110,-94.360,14.140,-163.100
13,0.975,0.110,0.217,-62.160,22.680,-131.040
13,0.967,-0.004,0.170,-40.320,28.070,-128.100
13,0.912,-0.072,0.119,-40.950,38.500,-151.200
13,0.951,0.246,0.202,-30.730,38.500,-135.730
13,0.938,0.246,0.224,-26.250,37.590,-108.500
13,0.892,0.151,0.206,-37.170,45.430,-108.850
13,0.867,0.138,0.291,-35.910,46.900,-122.640
13,0.843,0.222,0.318,-62.720,37.730,-140.000
13,0.775,0.253,0.279,-81.480,47.950,-150.640
13,0.734,0.361,0.348,-57.190,57.890,-160.370
13,0.675,0.395,0.376,-60.410,67.340,-168.140
13,0.625,0.434,0.442,-47.250,69.860,-185.150
13,0.578,0.632,0.557,-22.260,68.950,-192.780
13,0.509,0.720,0.497,-27.160,70.350,-174.930
13,0.486,0.775,0.605,-20.790,69.720,-148.960
13,0.406,0.671,0.643,-24.080,60.830,-138.250
13,0.367,0.717,0.682,-11.410,55.230,-155.190
13,0.366,1.079,0.759,6.370,46.130,-129.780
13,0.339,1.223,0.800,-9.310,14.630,-63.210
13,0.244,0.840,0.672,-10.360,-0.210,-37.590
13,0.216,0.790,0.626,-2.660,7.630,-39.340
13,0.233,0.856,0.654,-6.370,2.380,-31.850
14,0.095,-0.975,0.455,-20.160,-18.690,-3.920
14,0.108,-1.004,0.451,-24.080,-15.750,-13.160
14,0.125,-1.057,0.462,-26.460,-16.450,-24.780
14,0.136,-1.111,0.439,-31.500,-18.830,-47.320
14,0.183,-1.052,0.451,-38.990,-22.820,-64.050
14,0.193,-1.154,0.440,-42.770,-39.340,-97.370
14,0.245,-1.045,0.398,-55.370,-47.110,-122.920
14,0.280,-0.895,0.305,-57.540,-55.370,-136.990
14,0.313,-0.805,0.205,-42.490,-53.130,-138.320
14,0.374,-0.798,0.175,-24.920,-45.990,-139.720
14,0.474,-0.728,0.202,-17.430,-39.690,-132.440
14,0.524,-0.724,0.194,-10.990,-38.850,-124.320
14,0.561,-0.755,0.186,5.600,-46.550,-126.910
14,0.599,-0.759,0.121,8.470,-45.290,-137.900
14,0.658,-0.631,0.075,-8.330,-31.710,-124.740
14,0.707,-0.614,0.124,-15.470,-19.320,-107.730
14,0.737,-0.658,0.148,-14.630,-17.780,-116.900
14,0.812,-0.511,0.167,-16.380,-19.040,-120.470
14,0.831,-0.494,0.114,-15.050,-13.440,-118.230
14,0.838,-0.518,0.154,-20.860,-16.520,-125.510
14,0.835,-0.421,0.062,-17.080,-11.480,-132.650
14,0.865,-0.321,0.064,-17.570,5.950,-134.050
14,0.897,-0.330,0.121,-21.490,1.890,-141.330
14,0.934,-0.239,0.161,-28.910,-3.220,-151.130
14,0.943,-0.061,0.108,-43.750,0.630,-142.100
14,0.968,-0.001,0.150,-46.900,-2.940,-133.280
14,0.949,0.014,0.066,-45.780,0.910,-128.240
14,0.882,-0.103,0.040,-57.890,29.400,-142.940
14,0.876,0.139,0.102,-71.540,36.540,-140.350
14,0.939,0.401,0.129,-59.920,42.490,-122.360
14,0.892,0.250,0.127,-33.250,45.080,-119.140
14,0.826,0.297,0.109,-28.910,59.290,-106.330
14,0.863,0.236,0.314,-26.950,55.930,-119.980
14,0.868,0.462,0.302,-20.090,47.040,-116.620
14,0.773,0.362,0.264,-20.230,54.740,-116.900
14,0.666,0.256,0.326,-33.810,61.950,-142.590
14,0.650,0.409,0.370,-30.800,66.290,-162.960
14,0.610,0.583,0.382,-34.020,70.490,-155.610
14,0.554,0.584,0.465,-33.320,70.560,-158.690
14,0.508,0.647,0.556,-33.390,65.030,-163.310
14,0.541,0.994,0.650,-4.200,59.010,-160.090
14,0.573,1.301,0.655,17.150,44.100,-100.450
14,0.447,1.020,0.670,2.380,31.500,-43.470
14,0.405,0.844,0.699,-6.930,18.970,-32.760
14,0.400,0.903,0.630,-7.770,2.590,-20.580
14,0.372,0.897,0.545,-7.350,-2.730,-8.260
14,0.364,0.888,0.517,-2.170,-0.840,0.490
14,0.366,0.850,0.504,0.280,2.940,8.050
14,0.374,0.814,0.517,0.770,4.900,10.780
14,0.394,0.814,0.511,-1.050,8.960,16.800
15,0.547,-0.772,0.479,-5.880,-11.620,18.200
15,0.580,-0.661,0.446,-7.210,-12.530,31.150
15,0.513,-0.814,0.454,-8.680,-19.600,33.460
15,0.509,-0.765,0.411,1.400,-24.570,28.910
15,0.480,-0.793,0.409,3.920,-21.840,41.020
15,0.423,-0.878,0.404,-2.870,-21.350,33.530
15,0.427,-0.874,0.427,-0.350,-18.270,28.280
15,0.402,-0.960,0.454,0.840,-15.890,13.580
15,0.416,-1.048,0.480,11.130,-22.190,-20.230
15,0.391,-1.071,0.508,7.350,-26.250,-60.690
15,0.333,-1.192,0.532,-37.170,-38.220,-113.680
15,0.351,-1.012,0.410,-104.720,-41.930,-174.580
15,0.459,-0.765,0.259,-132.090,-21.000,-196.980
15,0.553,-0.672,0.250,-143.430,-8.260,-228.060
15,0.574,-0.643,0.227,-123.900,-14.070,-285.250
15,0.690,-0.541,0.233,-84.420,-24.150,-309.890
15,0.790,-0.102,0.113,-115.360,-28.910,-275.170
15,0.865,-0.041,-0.109,-44.660,-3.290,-170.660
15,0.884,-0.260,0.088,-5.460,-0.840,-168.070
15,0.908,-0.120,0.097,2.310,-10.570,-173.670
15,0.933,0.047,0.057,9.870,-2.450,-147.560
15,0.917,0.011,0.044,3.010,8.470,-133.910
15,0.915,0.016,0.096,-5.670,8.470,-147.980
15,0.939,0.199,0.103,-7.140,-2.730,-134.820
15,0.900,0.153,0.086,-24.640,2.520,-126.420
15,0.842,0.138,0.074,-17.290,14.630,-148.260
15,0.853,0.317,0.084,-22.610,15.050,-161.630
15,0.876,0.539,0.182,-20.510,13.510,-137.900
15,0.805,0.380,0.120,-35.000,18.410,-134.960
15,0.727,0.428,0.138,-29.890,31.360,-140.630
15,0.773,0.648,0.256,-45.080,30.380,-128.660
15,0.753,0.657,0.271,-60.760,25.200,-106.050
15,0.649,0.652,0.240,-64.400,24.430,-101.150
15,0.605,0.755,0.403,-38.850,35.630,-94.080
15,0.526,0.603,0.276,-42.910,49.980,-98.910
15,0.450,0.556,0.294,-44.940,67.270,-124.530
15,0.545,0.926,0.523,-40.530,55.930,-120.190
15,0.447,0.864,0.468,-39.900,50.050,-103.670
15,0.406,0.837,0.529,-35.770,53.200,-102.130
15,0.484,1.240,0.678,-21.280,32.060,-80.010
15,0.441,1.092,0.652,-15.610,10.360,-44.240
15,0.394,1.075,0.623,-3.920,-4.340,-19.110
15,0.359,0.941,0.576,3.780,-13.090,0.490
15,0.330,0.876,0.499,5.880,-14.770,8.750
15,0.312,0.846,0.455,6.370,-10.290,9.660
15,0.328,0.828,0.438,8.680,-5.250,9.660
15,0.366,0.849,0.470,8.750,-5.180,10.500
15,0.377,0.818,0.468,7.910,-6.160,11.690
15,0.376,0.797,0.458,8.120,-4.130,7.770
15,0.391,0.809,0.491,13.650,-3.990,7.070
16,-0.006,-0.994,0.341,0.700,-9.030,7.840
16,-0.014,-1.000,0.337,-0.770,-8.120,4.550
16,-0.024,-1.018,0.336,-3.360,-8.540,-1.190
16,-0.035,-1.015,0.314,-4.550,-5.110,-8.750
16,0.010,-1.007,0.346,-6.370,0.070,-20.300
16,0.027,-1.066,0.382,-19.320,-4.200,-30.450
16,-0.012,-1.154,0.343,-41.510,-12.740,-56.000
16,-0.046,-1.113,0.225,-60.830,-2.100,-88.200
16,0.115,-0.825,0.201,-55.930,19.530,-83.860
16,0.094,-0.995,0.193,-46.970,19.740,-96.110
16,0.048,-1.174,0.093,-42.280,34.370,-140.980
16,0.171,-1.025,0.241,-48.300,48.790,-199.010
16,0.375,-0.642,0.283,-17.780,46.550,-169.050
16,0.408,-0.987,0.266,-23.450,26.670,-150.640
16,0.390,-1.113,0.254,-26.600,7.980,-184.170
16,0.491,-0.807,0.215,-35.840,2.170,-192.360
16,0.600,-0.434,0.172,-21.630,7.350,-159.600
16,0.602,-0.760,0.198,1.120,-7.210,-162.750
16,0.660,-0.742,0.138,-0.280,-14.630,-183.330
16,0.800,-0.392,0.148,-26.810,-9.730,-139.510
16,0.771,-0.530,0.136,-21.840,-2.450,-121.870
16,0.741,-0.675,0.056,-10.640,-6.090,-157.500
16,0.844,-0.307,0.098,-15.890,5.390,-166.810
16,0.753,-0.100,0.042,-33.530,20.860,-115.430
16,0.834,-0.370,0.067,-11.900,30.100,-125.300
16,0.816,-0.379,0.063,-19.600,41.930,-161.630
16,0.947,-0.035,0.236,-34.790,46.200,-138.390
16,0.883,-0.113,0.107,-31.010,56.280,-123.900
16,0.881,-0.156,0.330,-8.120,59.080,-165.130
16,0.990,0.200,0.341,-5.460,38.150,-158.760
16,0.857,0.059,0.178,-8.540,40.670,-138.110
16,0.792,-0.004,0.276,-3.010,54.110,-166.040
16,0.834,0.335,0.332,-6.300,49.350,-157.500
16,0.820,0.317,0.356,-10.080,47.810,-140.210
16,0.667,0.073,0.247,-13.020,56.280,-171.360
16,0.527,0.156,0.315,-7.770,72.800,-217.560
16,0.456,0.301,0.466,1.400,82.460,-242.270
16,0.408,0.429,0.715,-114.730,69.090,-275.030
16,0.446,0.999,0.732,-51.450,70.910,-229.040
16,0.440,1.201,0.667,-28.210,78.400,-194.460
16,0.517,1.532,0.844,-21.210,53.410,-106.400
16,0.350,1.069,0.744,-31.780,36.260,-45.990
16,0.272,0.843,0.733,-13.860,29.820,-32.690
16,0.281,0.805,0.771,-0.770,17.080,-20.860
16,0.265,0.838,0.700,-4.830,3.430,-9.590
16,0.250,0.868,0.636,1.120,3.500,-1.470
16,0.262,0.809,0.631,6.510,5.110,4.830
16,0.292,0.763,0.657,5.110,1.890,6.020
16,0.304,0.759,0.647,8.750,0.980,9.030
16,0.293,0.712,0.629,3.710,0.840,10.500
17,0.005,-0.965,0.271,-15.540,-12.040,0.980
17,-0.031,-0.984,0.219,-12.670,-10.990,-0.560
17,-0.041,-1.004,0.231,-11.760,-7.840,-3.780
17,-0.020,-1.073,0.324,-11.270,-13.230,-15.750
17,-0.071,-1.219,0.258,-19.950,-19.040,-42.560
17,-0.129,-1.223,0.155,-32.480,2.100,-75.320
17,-0.028,-0.999,0.178,-29.050,26.950,-92.960
17,0.011,-0.978,0.203,-5.110,39.270,-100.170
17,0.102,-0.890,0.232,-0.420,45.430,-105.070
17,0.232,-0.819,0.346,-8.050,36.680,-93.590
17,0.209,-1.007,0.305,-29.050,12.880,-105.910
17,0.241,-0.888,0.260,-6.230,-6.580,-128.590
17,0.319,-0.803,0.094,-23.940,12.320,-120.120
17,0.344,-0.906,0.158,-3.640,14.420,-119.420
17,0.367,-0.987,0.229,-28.000,3.570,-136.780
17,0.428,-0.916,0.150,-40.040,8.260,-148.960
17,0.478,-0.893,0.183,-49.350,17.710,-162.330
17,0.577,-0.793,0.205,-54.180,18.340,-168.210
17,0.640,-0.718,0.184,-47.250,10.290,-172.060
17,0.702,-0.644,0.184,-49.980,3.780,-175.420
17,0.766,-0.456,0.133,-43.610,-2.170,-162.050
17,0.761,-0.483,0.081,-38.430,5.040,-160.580
17,0.759,-0.490,0.007,-60.410,21.000,-161.630
17,0.786,-0.428,0.046,-67.830,34.860,-168.210
17,0.891,-0.161,0.167,-81.550,38.430,-155.120
17,0.912,-0.215,0.122,-67.550,38.220,-143.220
17,0.886,-0.256,0.118,-50.190,42.350,-167.370
17,0.882,-0.167,0.208,-55.230,41.230,-199.850
17,0.922,-0.010,0.224,-52.920,44.450,-207.620
17,0.898,0.093,0.202,-44.170,46.760,-205.030
17,0.795,0.067,0.114,-26.810,58.100,-224.700
17,0.640,0.054,0.101,-17.220,93.380,-249.550
17,0.597,0.181,0.366,-16.660,108.570,-280.980
17,0.489,0.359,0.317,-12.670,105.070,-280.910
17,0.427,0.688,0.390,-9.450,105.700,-277.550
17,0.367,0.850,0.471,-30.310,111.790,-234.430
17,0.530,1.269,0.774,-12.740,89.950,-196.630
17,0.494,1.414,0.687,-3.430,43.680,-78.190
17,0.355,0.921,0.591,5.320,34.160,-65.450
17,0.335,0.922,0.703,12.740,30.870,-65.380
17,0.351,1.026,0.747,11.200,7.420,-40.600
17,0.284,0.968,0.622,5.320,-4.970,-16.170
17,0.255,0.961,0.554,5.670,-4.970,-4.130
17,0.260,0.921,0.543,7.280,-5.390,8.750
17,0.272,0.832,0.528,7.420,-7.420,9.870
17,0.274,0.778,0.496,4.550,-4.410,6.090
17,0.306,0.837,0.515,3.360,-3.920,4.550
17,0.306,0.821,0.506,3.780,-4.760,5.530
17,0.322,0.822,0.522,5.180,-3.500,4.060
17,0.328,0.779,0.527,1.680,-6.930,2.800
18,0.063,-0.927,0.338,-6.860,-10.920,-1.190
18,0.061,-0.961,0.340,-5.740,-13.930,1.540
18,0.058,-0.969,0.344,-7.700,-14.770,3.570
18,0.019,-1.010,0.304,-10.780,-12.530,-1.750
18,0.030,-1.012,0.332,-12.950,-8.680,-7.070
18,0.052,-1.041,0.326,-24.150,-5.390,-16.030
18,0.048,-1.114,0.354,-42.980,-6.370,-35.910
18,0.016,-1.220,0.273,-72.870,-3.430,-65.380
18,0.012,-1.144,0.203,-95.550,9.520,-92.750
18,0.185,-0.813,0.308,-79.590,6.720,-87.010
18,0.188,-0.933,0.176,-50.960,-10.220,-78.400
18,0.159,-1.061,0.043,-47.110,-1.890,-83.860
18,0.286,-0.816,0.140,-33.600,0.140,-77.280
18,0.292,-0.922,0.065,-12.950,-8.120,-77.070
18,0.263,-1.020,-0.021,-13.720,3.360,-86.030
18,0.297,-1.006,0.014,-29.680,20.020,-97.650
18,0.402,-0.840,0.095,-35.420,22.750,-101.570
18,0.437,-0.916,0.073,-32.480,17.220,-95.130
18,0.450,-0.971,0.078,-45.150,22.610,-112.490
18,0.576,-0.763,0.137,-33.740,24.780,-101.990
18,0.651,-0.664,0.141,-19.950,15.330,-80.920
18,0.600,-0.870,0.051,-11.970,11.200,-84.420
18,0.611,-0.763,0.026,-22.750,16.800,-87.920
18,0.690,-0.579,0.105,-34.440,19.460,-71.750
18,0.700,-0.662,0.053,-24.850,17.850,-59.570
18,0.673,-0.873,0.038,-26.320,20.370,-81.970
18,0.754,-0.619,0.112,-38.360,20.860,-95.900
18,0.793,-0.524,0.085,-33.530,20.930,-76.020
18,0.729,-0.723,0.028,-15.680,22.680,-91.700
18,0.742,-0.667,0.032,-28.490,38.990,-142.030
18,0.937,-0.061,0.113,-35.420,34.580,-83.300
18,0.846,-0.538,0.047,-19.600,39.060,-74.830
18,0.797,-0.747,0.076,-24.360,46.200,-133.700
18,0.850,-0.271,0.120,-71.400,56.000,-149.870
18,0.964,0.012,0.189,-76.090,64.260,-103.250
18,0.886,-0.337,0.105,-44.380,66.570,-113.470
18,0.936,-0.319,0.260,-61.810,69.090,-143.500
18,0.947,-0.179,0.305,-102.130,62.230,-148.610
18,0.964,0.134,0.307,-89.320,63.700,-131.250
18,0.910,0.087,0.304,-35.700,68.390,-97.230
18,0.776,-0.133,0.184,-28.980,88.900,-125.300
18,0.869,0.009,0.455,-42.210,88.060,-150.710
18,0.897,0.402,0.438,-30.800,74.130,-133.700
18,0.843,0.256,0.402,4.900,76.510,-110.740
18,0.687,0.089,0.361,-7.000,84.280,-142.310
18,0.687,0.221,0.479,-28.280,100.170,-145.880
18,0.785,0.575,0.663,-20.930,81.760,-126.420
18,0.669,0.453,0.554,-10.710,81.830,-107.240
18,0.667,0.412,0.723,5.320,80.710,-112.420
18,0.685,0.554,0.806,9.240,67.130,-104.020
19,-0.079,-1.003,0.331,-2.800,-8.890,6.370
19,-0.094,-1.039,0.347,-8.750,-8.540,-1.330
19,-0.142,-1.125,0.323,-18.760,-10.780,-22.820
19,-0.173,-1.168,0.283,-32.130,1.610,-51.380
19,-0.238,-1.229,0.214,-48.650,42.420,-89.040
19,-0.168,-1.132,0.244,-54.040,91.980,-117.810
19,-0.052,-0.976,0.288,-34.860,120.820,-134.820
19,0.104,-0.959,0.385,-18.620,104.090,-137.480
19,0.090,-1.052,0.353,-8.820,77.630,-170.450
19,0.127,-1.089,0.401,-20.160,49.280,-213.150
19,0.303,-0.874,0.238,-32.410,37.590,-220.010
19,0.347,-0.823,0.254,-32.130,21.840,-205.310
19,0.409,-0.896,0.207,-41.230,5.670,-218.330
19,0.562,-0.630,0.237,-55.160,-1.610,-191.170
19,0.632,-0.565,0.194,-37.730,4.550,-161.350
19,0.680,-0.622,0.214,-41.440,1.610,-163.310
19,0.713,-0.599,0.115,-45.710,1.260,-162.050
19,0.785,-0.482,0.188,-43.890,7.070,-158.900
19,0.835,-0.529,0.197,-62.930,0.350,-160.930
19,0.842,-0.395,0.111,-49.070,-3.500,-164.220
19,0.862,-0.437,0.125,-44.240,11.760,-163.380
19,0.897,-0.232,0.161,-45.080,13.930,-164.010
19,0.927,-0.139,0.118,-37.380,18.130,-146.860
19,0.910,-0.304,0.109,-33.880,27.230,-152.880
19,0.911,-0.154,0.181,-56.700,24.010,-179.550
19,0.893,-0.000,0.109,-61.390,42.070,-181.300
19,0.861,0.093,0.180,-68.740,54.530,-179.340
19,0.865,0.149,0.234,-63.490,61.740,-178.290
19,0.856,0.212,0.271,-66.920,69.860,-185.360
19,0.781,0.323,0.250,-47.530,75.670,-186.270
19,0.722,0.252,0.322,-33.740,86.940,-190.470
19,0.601,0.340,0.386,-35.420,95.970,-209.720
19,0.562,0.472,0.439,-53.550,102.760,-204.470
19,0.443,0.473,0.467,-52.360,108.780,-219.730
19,0.344,0.500,0.655,-48.370,111.020,-240.940
19,0.366,0.729,0.731,-69.090,104.230,-234.360
19,0.174,0.981,0.700,-27.580,86.310,-212.660
19,0.164,1.040,0.786,-18.410,77.000,-177.310
19,0.142,1.334,0.903,-4.970,56.350,-113.540
19,0.076,0.995,0.802,-9.240,32.900,-54.600
19,0.041,0.824,0.768,-7.070,29.680,-47.740
19,0.029,0.811,0.816,-5.040,18.760,-39.760
19,0.012,0.857,0.808,-3.780,3.640,-33.180
19,-0.017,0.861,0.751,-1.260,-2.590,-19.810
19,-0.033,0.835,0.688,-0.770,-4.200,-11.550
19,-0.026,0.806,0.669,3.080,-1.750,-5.250
19,-0.003,0.807,0.686,3.780,-2.520,-0.840
19,0.008,0.776,0.662,2.170,-5.250,2.590
19,0.012,0.786,0.675,-1.610,-4.900,6.020
19,0.030,0.778,0.694,-2.660,-3.220,9.660
20,0.061,-0.932,0.764,-18.900,-29.610,-44.590
20,0.008,-1.115,0.754,-86.730,-47.670,-120.330
20,0.060,-0.940,0.565,-86.870,-43.680,-178.710
20,0.174,-0.932,0.513,-116.270,-14.910,-194.040
20,0.278,-0.750,0.356,-158.200,35.560,-195.580
20,0.411,-0.614,0.234,-31.640,96.810,-132.160
20,0.420,-0.867,0.647,-67.690,72.660,-158.690
20,0.463,-0.833,0.599,-73.430,18.060,-199.570
20,0.523,-0.692,0.378,-120.470,0.350,-214.270
20,0.583,-0.655,0.447,-44.520,12.040,-205.940
20,0.654,-0.583,0.490,26.880,-5.250,-201.320
20,0.718,-0.508,0.526,-5.390,-34.860,-191.870
20,0.768,-0.434,0.372,-15.540,-52.150,-183.750
20,0.806,-0.322,0.283,-23.660,-26.600,-170.240
20,0.819,-0.350,0.333,-46.410,-28.770,-182.280
20,0.827,-0.244,0.311,-77.910,-30.660,-194.320
20,0.840,-0.169,0.235,-83.930,-18.760,-192.990
20,0.841,-0.101,0.277,-69.720,4.620,-192.780
20,0.855,-0.031,0.262,-76.020,3.990,-192.990
20,0.879,0.036,0.304,-47.810,5.600,-207.200
20,0.802,0.173,0.264,-48.300,8.190,-218.050
20,0.784,0.305,0.251,-58.450,26.600,-218.540
20,0.718,0.354,0.266,-46.480,50.120,-210.140
20,0.685,0.524,0.256,-14.840,60.900,-195.090
20,0.668,0.514,0.386,-4.340,74.270,-193.970
20,0.594,0.587,0.434,3.780,74.690,-189.140
20,0.565,0.600,0.569,15.400,63.490,-169.330
20,0.535,0.709,0.617,17.080,38.570,-178.150
20,0.429,0.824,0.444,25.900,35.490,-162.540
20,0.368,0.840,0.482,35.280,30.170,-155.820
20,0.317,0.961,0.446,56.770,34.790,-144.550
20,0.198,0.824,0.439,60.760,30.870,-138.950
20,0.130,0.710,0.496,60.900,21.560,-173.670
20,0.164,1.238,0.464,46.830,2.310,-151.760
20,0.096,1.248,0.457,28.700,-10.080,-98.420
20,0.014,1.265,0.313,20.930,-9.030,-70.350
20,-0.019,1.098,0.350,18.620,-2.240,-47.250
20,0.006,1.049,0.401,19.250,-5.320,-36.120
20,0.011,1.044,0.380,7.700,-12.460,-18.130
20,-0.022,1.042,0.301,1.820,-12.670,-5.460
20,-0.038,1.047,0.270,0.980,-5.320,2.660
20,-0.023,0.990,0.321,1.540,0.000,8.050
20,-0.000,0.973,0.320,-1.680,-0.490,8.680
20,0.000,0.928,0.338,-2.730,-0.910,7.140
20,0.012,0.952,0.344,-2.310,-1.190,6.090
20,0.017,0.948,0.363,-2.100,-2.940,4.200
20,0.018,0.970,0.351,-1.260,-4.550,3.570
20,0.013,0.947,0.342,-2.380,-4.270,3.850
20,0.013,0.930,0.333,-3.220,-3.150,-0.980
20,0.016,0.938,0.339,-4.270,-4.690,-2.170
21,-0.211,-0.621,0.617,-24.710,-30.100,-23.730
21,-0.294,-0.806,0.670,-27.860,-13.930,-22.750
21,-0.354,-0.874,0.742,-49.000,-23.450,-41.790
21,-0.357,-0.978,0.777,-87.500,-52.010,-93.870
21,-0.242,-0.944,0.590,-91.350,-42.770,-138.530
21,-0.192,-0.955,0.538,-54.670,-6.720,-170.940
21,-0.187,-1.025,0.626,-30.870,-0.420,-205.380
21,-0.052,-0.908,0.569,-37.380,-3.290,-238.070
21,0.093,-0.596,0.509,-64.260,-9.380,-214.690
21,0.179,-0.720,0.545,-50.610,-16.730,-155.680
21,0.270,-0.756,0.461,-52.710,-22.330,-135.940
21,0.349,-0.788,0.413,-51.590,-14.070,-136.360
21,0.387,-0.755,0.450,-32.200,-18.130,-142.170
21,0.440,-0.784,0.413,-9.030,-24.920,-142.730
21,0.493,-0.756,0.427,-20.370,-30.100,-158.550
21,0.549,-0.691,0.377,-27.370,-23.100,-151.060
21,0.594,-0.633,0.372,-25.200,-21.770,-145.390
21,0.687,-0.582,0.412,-30.450,-26.880,-139.510
21,0.705,-0.555,0.360,-24.080,-21.700,-131.740
21,0.750,-0.549,0.376,-28.700,-25.760,-133.630
21,0.774,-0.476,0.332,-22.470,-29.540,-141.610
21,0.823,-0.407,0.288,-16.800,-22.680,-124.250
21,0.817,-0.409,0.285,-35.000,-16.380,-135.940
21,0.868,-0.322,0.322,-33.810,-17.640,-135.030
21,0.899,-0.267,0.275,-32.830,-14.770,-131.880
21,0.878,-0.298,0.201,-30.520,-4.690,-128.170
21,0.885,-0.243,0.267,-21.560,2.240,-138.390
21,0.897,-0.158,0.252,-30.520,13.370,-146.580
21,0.880,-0.100,0.238,-17.850,26.740,-149.940
21,0.836,-0.092,0.234,-6.090,41.440,-172.970
21,0.836,0.059,0.388,16.450,47.110,-193.760
21,0.792,0.241,0.310,24.920,43.540,-195.370
21,0.741,0.280,0.335,22.540,51.870,-202.440
21,0.691,0.359,0.403,20.720,58.800,-208.250
21,0.657,0.533,0.460,7.210,46.550,-198.100
21,0.603,0.642,0.443,-7.420,43.680,-178.150
21,0.490,0.528,0.401,-23.380,44.030,-178.150
21,0.368,0.487,0.412,-22.120,57.820,-203.280
21,0.247,0.517,0.442,-30.870,69.300,-226.170
21,0.171,0.844,0.447,-21.350,80.010,-234.220
21,0.099,1.155,0.452,-4.760,92.050,-206.080
21,0.116,1.317,0.750,18.550,87.990,-160.370
21,0.134,1.269,0.839,2.870,51.030,-96.390
21,0.067,1.108,0.808,-14.630,18.130,-54.460
21,-0.020,0.975,0.652,-12.040,5.110,-37.870
21,-0.032,0.899,0.630,-4.410,3.220,-33.110
21,-0.012,0.984,0.627,0.000,-4.690,-23.100
21,-0.002,1.010,0.605,2.730,-11.200,-6.650
21,-0.010,0.920,0.549,2.030,-11.550,8.120
21,0.005,0.869,0.541,5.180,-8.750,8.750
22,0.286,-0.948,0.197,0.840,-22.120,37.730
22,0.263,-0.968,0.183,-6.440,-23.520,42.000
22,0.235,-1.038,0.162,-10.710,-19.460,39.480
22,0.225,-1.057,0.160,-12.320,-17.570,30.590
22,0.183,-1.194,0.128,-17.360,-12.180,7.350
22,0.180,-1.314,0.156,-26.460,-5.320,-37.590
22,0.175,-1.400,0.126,-37.450,2.870,-106.330
22,0.161,-1.433,0.066,-72.800,14.140,-165.620
22,0.200,-1.186,0.049,-71.610,36.330,-207.060
22,0.314,-0.821,0.124,-60.760,48.020,-215.320
22,0.424,-0.673,0.165,-48.930,36.260,-212.380
22,0.524,-0.652,0.149,-37.170,16.730,-207.480
22,0.634,-0.498,0.105,-46.760,-2.380,-191.380
22,0.683,-0.546,-0.006,-40.810,-1.540,-169.750
22,0.737,-0.544,0.000,-37.030,-3.080,-171.570
22,0.773,-0.492,-0.037,-29.680,2.380,-177.450
22,0.796,-0.448,-0.038,-27.090,13.300,-188.860
22,0.813,-0.381,-0.063,-46.970,18.690,-196.280
22,0.842,-0.188,0.007,-49.280,28.140,-192.640
22,0.894,-0.075,0.002,-55.860,24.150,-188.790
22,0.904,-0.068,0.039,-43.960,25.060,-192.570
22,0.865,-0.025,0.061,-36.330,31.850,-209.230
22,0.847,0.201,0.074,-40.670,39.480,-203.910
22,0.822,0.251,0.069,-58.590,42.980,-186.970
22,0.764,0.270,0.081,-65.030,54.600,-191.870
22,0.740,0.393,0.156,-61.460,64.680,-197.540
22,0.700,0.491,0.208,-45.080,71.610,-204.750
22,0.612,0.530,0.192,-39.130,83.160,-211.050
22,0.548,0.630,0.304,-35.840,95.410,-208.040
22,0.553,0.936,0.495,-22.960,86.660,-188.510
22,0.505,0.945,0.481,-21.700,64.960,-147.700
22,0.392,0.640,0.380,-33.320,64.050,-144.340
22,0.280,0.399,0.398,-47.950,77.210,-185.290
22,0.216,0.582,0.570,-39.970,66.850,-230.650
22,0.033,0.819,0.569,-56.210,45.360,-222.810
22,-0.064,1.116,0.442,-73.080,67.480,-169.540
22,-0.107,1.272,0.627,-50.820,55.300,-143.780
22,-0.144,1.387,0.685,-31.220,47.110,-100.030
22,-0.155,1.146,0.727,-17.220,38.850,-59.920
22,-0.142,0.989,0.774,-8.680,26.880,-39.270
22,-0.133,0.942,0.779,-1.190,3.220,-25.480
22,-0.167,0.897,0.693,-3.780,-15.050,-10.780
22,-0.202,0.873,0.585,-4.970,-17.290,-5.250
22,-0.198,0.866,0.531,-0.980,-10.290,-2.660
22,-0.182,0.871,0.516,1.120,-4.130,2.590
22,-0.158,0.873,0.527,-1.540,1.330,7.980
22,-0.141,0.854,0.549,-4.690,2.730,12.250
22,-0.127,0.809,0.550,-5.880,3.080,13.090
22,-0.119,0.767,0.557,-9.310,3.710,9.590
22,-0.118,0.811,0.590,-9.310,4.620,5.390
23,0.587,-0.846,0.097,-4.970,-3.080,-2.100
23,0.594,-0.812,0.117,-5.740,-2.100,-1.960
23,0.593,-0.844,0.106,-4.760,-2.940,-5.810
23,0.589,-0.848,0.081,-6.860,-0.350,-12.180
23,0.598,-0.823,0.092,-6.510,5.670,-15.680
23,0.597,-0.864,0.097,-4.760,5.460,-26.110
23,0.620,-0.915,0.106,-0.490,3.780,-52.920
23,0.644,-0.934,0.151,0.770,-3.500,-81.340
23,0.657,-0.832,0.096,-22.120,-4.900,-107.450
23,0.641,-0.414,-0.242,108.920,20.790,-107.730
23,0.708,-0.693,0.088,23.660,4.060,-120.820
23,0.734,-0.618,0.118,12.040,5.040,-126.770
23,0.766,-0.566,0.092,25.690,6.230,-125.930
23,0.792,-0.536,0.146,39.620,6.020,-138.810
23,0.832,-0.464,0.168,15.890,-2.520,-140.630
23,0.867,-0.391,0.181,4.480,-6.860,-139.650
23,0.880,-0.348,0.162,-10.010,-6.230,-141.820
23,0.895,-0.319,0.158,-22.120,-3.990,-149.170
23,0.904,-0.243,0.186,-46.900,-3.290,-165.410
23,0.918,-0.060,0.175,-62.650,-5.250,-167.790
23,0.922,0.030,0.131,-27.860,9.520,-158.550
23,0.921,0.057,0.162,-24.430,12.740,-164.570
23,0.943,0.242,0.180,-35.770,11.970,-142.730
23,0.910,0.221,0.151,-41.650,14.350,-134.610
23,0.897,0.284,0.204,-40.460,15.190,-132.790
23,0.882,0.327,0.226,-54.110,13.860,-131.460
23,0.833,0.318,0.196,-61.040,16.380,-141.820
23,0.778,0.409,0.208,-32.060,35.210,-148.050
23,0.777,0.477,0.280,-16.520,35.350,-150.500
23,0.734,0.519,0.298,-15.260,36.540,-148.330
23,0.664,0.523,0.326,-12.320,35.070,-160.370
23,0.558,0.643,0.264,-6.370,47.040,-167.650
23,0.500,0.579,0.304,-2.450,54.810,-171.360
23,0.397,0.561,0.300,-2.310,60.410,-196.560
23,0.358,0.849,0.411,8.890,56.420,-211.260
23,0.307,1.074,0.429,15.750,42.840,-189.140
23,0.225,1.046,0.413,11.690,32.970,-158.620
23,0.173,1.106,0.415,7.350,27.930,-136.780
23,0.126,1.186,0.447,4.060,21.910,-102.690
23,0.108,1.176,0.478,4.900,11.900,-76.860
23,0.079,1.155,0.503,4.060,2.100,-51.310
23,0.061,1.125,0.497,3.500,-8.260,-28.280
23,0.047,1.059,0.430,2.590,-14.350,-13.020
23,0.041,1.038,0.375,5.670,-15.330,-3.920
23,0.037,0.984,0.335,6.580,-10.290,4.900
23,0.035,0.940,0.321,7.210,-5.040,4.690
23,0.052,0.925,0.320,6.160,-0.350,1.960
23,0.080,0.951,0.351,6.510,0.420,2.240
23,0.087,0.940,0.374,4.830,-3.010,3.360
23,0.089,0.949,0.369,3.570,-5.250,2.450
24,0.540,-0.892,0.142,-0.280,-10.360,-1.050
24,0.511,-0.945,0.107,-3.220,-5.180,-14.350
24,0.510,-0.980,0.122,-2.870,3.920,-35.350
24,0.538,-1.010,0.178,-13.930,7.490,-60.480
24,0.555,-0.996,0.167,-31.430,9.660,-88.690
24,0.573,-0.891,0.162,-36.610,14.700,-109.200
24,0.660,-0.732,0.208,-46.900,10.500,-115.360
24,0.694,-0.622,0.161,-43.610,7.560,-105.910
24,0.694,-0.617,0.079,-37.590,6.300,-103.110
24,0.729,-0.633,0.095,-35.490,8.610,-105.560
24,0.740,-0.578,0.036,-33.670,13.020,-103.810
24,0.778,-0.570,0.046,-38.640,16.940,-125.160
24,0.813,-0.524,0.069,-22.750,22.820,-116.900
24,0.845,-0.409,0.081,-3.010,28.210,-126.280
24,0.886,-0.379,0.158,-20.720,21.280,-126.560
24,0.923,-0.266,0.152,-34.160,16.310,-124.040
24,0.916,-0.281,0.116,-51.310,28.000,-129.570
24,0.925,-0.282,0.135,-76.230,27.860,-141.470
24,0.954,-0.166,0.196,-79.240,25.130,-150.920
24,0.964,0.010,0.196,-73.850,23.380,-137.690
24,0.943,0.043,0.187,-65.170,25.550,-126.210
24,0.940,0.026,0.150,-49.490,35.560,-125.930
24,0.955,0.095,0.219,-42.420,36.470,-127.260
24,0.941,0.209,0.233,-46.830,31.640,-116.200
24,0.926,0.235,0.265,-32.410,40.740,-104.510
24,0.894,0.183,0.265,-39.200,42.280,-109.690
24,0.864,0.205,0.227,-37.660,54.040,-122.640
24,0.835,0.291,0.282,-31.430,63.700,-130.970
24,0.829,0.401,0.413,-29.400,63.070,-120.960
24,0.764,0.380,0.336,-34.440,67.830,-117.530
24,0.709,0.396,0.373,-28.560,80.850,-128.170
24,0.663,0.461,0.454,-14.350,91.000,-138.880
24,0.607,0.567,0.508,-7.770,91.420,-132.230
24,0.513,0.470,0.469,-20.230,92.890,-131.390
24,0.457,0.416,0.516,-32.060,100.310,-152.180
24,0.329,0.424,0.485,-41.510,107.380,-169.680
24,0.229,0.507,0.574,-29.260,120.680,-190.120
24,0.191,0.816,0.892,0.000,117.950,-201.670
24,0.093,1.144,0.972,12.740,72.800,-155.400
24,0.035,1.191,0.960,5.880,39.340,-97.020
24,-0.002,1.029,0.883,4.270,26.460,-48.090
24,0.003,0.857,0.855,10.430,16.800,-32.690
24,0.018,0.825,0.831,10.290,-1.820,-19.880
24,-0.023,0.812,0.685,4.900,-11.970,-11.270
24,-0.028,0.817,0.642,3.710,-5.460,-4.550
24,-0.007,0.803,0.652,5.110,-0.560,-0.140
24,0.036,0.835,0.696,6.440,-1.330,5.040
24,0.051,0.792,0.691,2.660,-7.770,13.510
24,0.051,0.730,0.660,-0.490,-8.610,10.990
24,0.066,0.767,0.681,2.240,-7.980,8.190
25,0.298,-0.960,0.254,-0.280,-3.080,9.590
25,0.269,-1.104,0.309,-4.060,-6.160,-7.070
25,0.289,-1.119,0.346,-14.350,-15.400,-38.710
25,0.265,-1.144,0.298,-15.260,-21.980,-73.430
25,0.257,-1.162,0.252,-30.660,-11.550,-118.300
25,0.319,-0.961,0.201,-52.220,7.490,-143.360
25,0.439,-0.791,0.214,-63.910,19.950,-141.050
25,0.538,-0.705,0.210,-49.210,21.840,-119.980
25,0.581,-0.789,0.241,-21.980,13.440,-121.450
25,0.625,-0.819,0.220,-21.700,-9.450,-138.810
25,0.664,-0.664,0.177,7.280,-9.450,-156.240
25,0.703,-0.569,0.150,-2.100,-8.960,-146.790
25,0.733,-0.528,0.119,-2.800,-5.040,-138.250
25,0.773,-0.528,0.151,-14.070,-9.870,-140.420
25,0.823,-0.414,0.169,-31.850,-9.870,-147.350
25,0.874,-0.397,0.133,-35.000,-18.550,-140.560
25,0.885,-0.340,0.129,-45.920,-17.990,-141.260
25,0.887,-0.313,0.112,-61.250,-26.250,-152.950
25,0.932,-0.243,0.145,-77.280,-20.090,-166.110
25,0.945,-0.103,0.063,-92.330,-20.370,-165.340
25,0.941,-0.088,0.020,-73.360,-9.100,-155.820
25,0.937,0.004,0.013,-75.040,-7.700,-164.780
25,0.957,0.197,0.146,-79.240,1.120,-166.950
25,0.918,0.200,0.095,-76.090,-0.280,-153.440
25,0.926,0.229,0.133,-70.490,12.530,-147.000
25,0.907,0.249,0.104,-54.180,14.980,-132.930
25,0.886,0.370,0.122,-57.470,18.900,-132.860
25,0.887,0.478,0.192,-56.070,17.570,-109.550
25,0.834,0.389,0.142,-53.340,21.000,-107.170
25,0.791,0.408,0.155,-53.200,34.090,-118.930
25,0.780,0.490,0.245,-39.690,38.500,-120.050
25,0.716,0.512,0.217,-35.490,47.530,-128.590
25,0.681,0.608,0.283,-31.780,54.250,-131.600
25,0.643,0.691,0.349,-28.630,45.570,-122.290
25,0.568,0.604,0.313,-28.350,49.980,-128.660
25,0.517,0.680,0.376,-33.740,56.420,-136.500
25,0.463,0.764,0.434,-32.690,55.020,-138.600
25,0.417,0.917,0.530,-25.620,47.810,-129.780
25,0.349,0.953,0.491,-24.290,41.720,-109.830
25,0.297,0.934,0.501,-17.080,43.120,-99.680
25,0.270,0.988,0.572,-12.530,33.950,-86.030
25,0.244,1.012,0.596,-11.410,23.030,-63.560
25,0.223,1.032,0.611,-9.380,9.870,-40.110
25,0.209,0.996,0.600,-7.420,-3.850,-19.530
25,0.172,0.948,0.531,-7.700,-8.190,-7.350
25,0.156,0.935,0.490,-2.870,-3.640,-0.490
25,0.172,0.863,0.479,1.260,-0.840,-0.840
25,0.198,0.853,0.495,0.700,2.240,-1.470
25,0.222,0.849,0.511,-0.350,-0.420,-1.890
25,0.229,0.891,0.519,1.400,-2.100,-1.610
26,0.370,-1.022,0.093,-0.210,-24.640,4.410
26,0.348,-1.039,0.069,-7.980,-16.520,-11.200
26,0.343,-1.102,0.079,-16.170,-4.690,-33.880
26,0.362,-1.132,0.098,-24.430,5.110,-60.410
26,0.378,-1.167,0.081,-38.500,16.590,-90.650
26,0.440,-1.055,0.141,-47.600,21.420,-118.650
26,0.489,-0.971,0.208,-50.820,17.570,-150.080
26,0.570,-0.825,0.191,-44.520,-0.490,-166.880
26,0.623,-0.647,0.101,-37.870,-9.590,-162.890
26,0.660,-0.605,0.059,-27.370,-13.860,-152.460
26,0.703,-0.611,0.031,-41.930,-24.430,-152.530
26,0.720,-0.579,-0.065,-42.840,-14.000,-156.100
26,0.796,-0.470,-0.011,-52.150,-1.610,-161.980
26,0.842,-0.345,-0.020,-56.980,3.850,-148.120
26,0.844,-0.348,-0.042,-55.300,12.810,-149.730
26,0.878,-0.308,-0.061,-71.750,16.940,-152.180
26,0.921,-0.222,-0.010,-73.990,22.050,-144.200
26,0.941,-0.167,-0.018,-59.220,28.210,-133.770
26,0.912,-0.196,-0.062,-61.390,36.330,-152.320
26,0.954,-0.032,0.072,-62.860,40.390,-160.580
26,0.971,0.143,0.129,-56.980,32.480,-147.630
26,0.935,0.194,0.055,-44.380,34.300,-133.000
26,0.868,0.143,-0.022,-44.520,47.740,-135.800
26,0.865,0.247,0.095,-41.790,64.190,-145.320
26,0.860,0.408,0.169,-45.220,62.650,-130.620
26,0.856,0.532,0.254,-35.140,58.870,-109.480
26,0.828,0.511,0.264,-26.320,49.980,-99.680
26,0.817,0.471,0.267,-14.910,56.910,-97.020
26,0.780,0.434,0.247,-4.550,66.570,-109.830
26,0.741,0.548,0.353,-0.840,70.840,-117.320
26,0.685,0.596,0.333,-6.440,66.780,-112.000
26,0.642,0.567,0.352,-11.270,70.420,-112.700
26,0.591,0.578,0.390,-18.970,74.760,-123.830
26,0.524,0.606,0.431,-30.380,76.510,-129.290
26,0.476,0.677,0.506,-35.210,71.120,-141.330
26,0.377,0.737,0.505,-27.510,68.670,-153.440
26,0.324,1.045,0.651,-21.420,58.800,-131.110
26,0.278,1.055,0.654,-19.880,39.340,-85.680
26,0.244,0.976,0.657,-6.580,31.080,-61.880
26,0.221,0.829,0.611,-3.780,29.470,-54.460
26,0.228,0.840,0.639,-3.290,24.710,-54.670
26,0.223,0.859,0.630,-3.780,14.700,-46.270
26,0.190,0.932,0.627,1.680,9.590,-37.660
26,0.168,0.936,0.613,6.090,5.460,-22.960
26,0.169,0.893,0.586,7.770,5.810,-14.910
26,0.175,0.873,0.603,3.220,1.680,-5.390
26,0.167,0.789,0.545,1.050,-3.360,-9.450
26,0.148,0.843,0.559,2.660,-1.400,-11.340
26,0.130,0.884,0.569,1.890,-4.340,-4.340
26,0.122,0.824,0.538,-1.050,-3.920,-4.760
27,0.431,-0.862,0.275,-25.270,-25.060,-36.890
27,0.438,-0.907,0.251,-20.230,-32.620,-43.050
27,0.431,-0.942,0.191,-21.840,-34.580,-55.440
27,0.443,-0.957,0.159,-32.900,-24.500,-64.330
27,0.457,-0.923,0.153,-46.480,-11.690,-73.570
27,0.500,-0.909,0.167,-62.580,-7.350,-82.390
27,0.553,-0.892,0.180,-58.660,-7.980,-93.380
27,0.586,-0.835,0.115,-59.150,-14.630,-115.780
27,0.616,-0.745,0.085,-60.830,-15.470,-121.730
27,0.648,-0.753,0.028,-70.000,-8.330,-133.700
27,0.686,-0.678,0.001,-73.570,0.070,-142.100
27,0.747,-0.533,-0.018,-57.260,9.240,-131.390
27,0.807,-0.546,0.016,-45.080,9.170,-127.540
27,0.803,-0.537,-0.011,-47.740,14.560,-140.560
27,0.856,-0.362,0.020,-41.510,8.400,-132.860
27,0.878,-0.334,-0.030,-31.430,12.670,-125.020
27,0.886,-0.293,-0.023,-19.740,17.220,-122.010
27,0.901,-0.306,-0.012,-16.170,17.780,-136.150
27,0.946,-0.142,0.021,-19.950,20.650,-133.560
27,0.941,-0.128,-0.028,-27.090,25.760,-125.300
27,0.892,-0.117,-0.018,-30.730,53.550,-129.570
27,0.879,-0.090,0.056,-42.210,54.740,-149.450
27,0.925,0.006,0.120,-63.980,51.030,-160.930
27,0.907,0.144,0.140,-67.340,53.270,-160.230
27,0.853,0.149,0.125,-83.860,56.700,-164.640
27,0.880,0.392,0.247,-52.220,60.620,-164.920
27,0.867,0.461,0.238,-41.370,55.440,-152.110
27,0.801,0.503,0.260,-18.270,61.110,-140.630
27,0.742,0.534,0.264,-9.520,62.020,-138.390
27,0.701,0.465,0.314,-1.260,65.800,-144.830
27,0.636,0.559,0.348,0.350,60.480,-160.860
27,0.599,0.706,0.417,12.810,67.690,-156.940
27,0.566,0.875,0.462,20.020,58.730,-146.300
27,0.505,0.856,0.426,18.550,54.810,-115.570
27,0.456,0.632,0.417,9.520,55.370,-122.850
27,0.373,0.655,0.439,0.910,58.450,-139.650
27,0.346,0.735,0.504,-9.170,51.170,-152.180
27,0.293,0.807,0.546,-15.820,37.380,-159.670
27,0.198,0.921,0.541,-22.120,21.980,-154.350
27,0.132,1.160,0.567,-18.550,11.340,-137.340
27,0.074,1.207,0.540,-11.270,11.340,-89.320
27,0.035,1.143,0.536,-7.280,11.480,-55.580
27,0.021,1.041,0.546,-0.630,4.830,-34.510
27,0.026,1.006,0.585,3.920,0.140,-21.560
27,0.012,1.025,0.550,3.080,-10.150,-3.850
27,-0.002,0.978,0.495,2.380,-12.600,7.770
27,0.005,0.971,0.469,4.830,-8.680,16.730
27,0.030,0.955,0.461,5.250,-4.690,27.790
27,0.060,0.939,0.484,3.010,-5.040,33.110
27,0.090,0.921,0.497,0.490,-9.870,41.090
28,0.309,-0.933,0.236,-17.850,-26.040,-32.060
28,0.323,-0.927,0.215,-12.040,-29.890,-33.250
28,0.317,-0.962,0.200,-13.160,-29.960,-39.340
28,0.320,-1.008,0.196,-16.310,-25.620,-49.140
28,0.305,-1.102,0.168,-27.370,-0.910,-77.910
28,0.331,-1.042,0.161,-41.930,-6.510,-101.640
28,0.401,-0.984,0.179,-52.780,5.810,-119.490
28,0.509,-0.794,0.174,-51.030,6.720,-125.510
28,0.558,-0.762,0.133,-40.390,-4.340,-122.500
28,0.566,-0.788,0.064,-52.500,-2.730,-130.690
28,0.611,-0.732,0.033,-58.240,3.640,-131.460
28,0.692,-0.617,0.059,-55.510,4.200,-119.980
28,0.724,-0.653,0.012,-61.390,8.470,-111.580
28,0.747,-0.658,0.033,-77.980,5.110,-123.340
28,0.798,-0.609,0.062,-69.440,-2.660,-143.710
28,0.838,-0.478,0.035,-76.230,0.070,-143.430
28,0.858,-0.437,0.039,-68.110,-3.990,-137.760
28,0.871,-0.428,-0.068,-38.360,-6.090,-158.200
28,0.899,-0.313,-0.031,-25.480,-0.560,-170.170
28,0.933,-0.170,-0.002,-25.060,0.210,-157.290
28,0.923,-0.149,-0.054,-24.010,10.150,-148.120
28,0.906,-0.150,-0.074,-18.970,16.030,-159.320
28,0.902,-0.066,-0.046,-23.730,24.080,-170.590
28,0.885,0.028,-0.023,-35.350,25.410,-178.290
28,0.872,0.109,0.015,-37.450,32.900,-188.300
28,0.885,0.286,0.039,-28.490,29.960,-180.250
28,0.864,0.260,0.103,-49.420,29.680,-183.610
28,0.830,0.416,0.146,-62.160,24.710,-177.310
28,0.781,0.479,0.166,-61.180,21.210,-177.730
28,0.730,0.590,0.205,-53.480,17.080,-175.070
28,0.650,0.610,0.181,-49.630,19.460,-179.340
28,0.571,0.662,0.177,-35.770,26.180,-189.910
28,0.521,0.792,0.230,-36.960,20.790,-188.300
28,0.505,0.955,0.296,-32.410,12.600,-164.360
28,0.427,0.955,0.272,-29.470,9.450,-143.850
28,0.325,0.819,0.253,-29.050,14.980,-144.060
28,0.247,0.707,0.278,-31.570,21.980,-162.680
28,0.183,0.777,0.340,-39.200,14.980,-184.730
28,0.117,1.065,0.387,-27.790,1.890,-186.480
28,0.026,1.254,0.317,-20.090,-2.240,-149.800
28,-0.040,1.273,0.347,-13.020,2.450,-112.630
28,-0.038,1.185,0.416,-6.650,-0.350,-80.990
28,-0.022,1.103,0.469,-3.220,-12.530,-55.790
28,-0.052,1.044,0.430,-1.750,-25.690,-38.290
28,-0.105,1.038,0.348,1.190,-26.530,-28.420
28,-0.125,1.062,0.307,7.070,-20.580,-19.600
28,-0.116,1.075,0.318,7.280,-17.780,-5.250
28,-0.103,0.982,0.307,3.080,-13.650,4.060
28,-0.082,0.944,0.312,2.170,-9.940,1.260
28,-0.066,1.026,0.319,3.570,-7.910,7.490
29,0.284,-0.983,0.105,-4.900,-18.760,-5.460
29,0.264,-1.002,0.105,-4.270,-22.050,-9.520
29,0.244,-1.050,0.091,-5.670,-22.400,-18.200
29,0.237,-1.089,0.089,-15.330,-19.950,-30.730
29,0.237,-1.162,0.088,-32.060,-16.870,-54.740
29,0.281,-1.072,0.076,-43.190,-11.060,-68.740
29,0.336,-0.971,0.067,-40.180,-5.180,-67.970
29,0.351,-0.975,0.049,-36.750,-4.690,-76.720
29,0.373,-0.907,0.021,-33.600,-8.190,-88.270
29,0.410,-0.871,-0.047,-43.120,-9.100,-89.880
29,0.442,-0.847,-0.080,-33.670,-2.100,-87.570
29,0.487,-0.756,-0.061,-22.890,6.650,-84.000
29,0.540,-0.776,-0.077,-18.620,11.830,-83.160
29,0.578,-0.757,-0.080,-14.210,11.970,-79.450
29,0.590,-0.773,-0.098,-7.350,18.970,-77.350
29,0.655,-0.756,-0.040,-11.340,23.100,-76.160
29,0.709,-0.708,-0.011,-11.620,19.600,-75.180
29,0.722,-0.700,-0.018,-3.290,10.290,-78.400
29,0.713,-0.755,-0.027,-2.310,7.980,-95.550
29,0.749,-0.683,-0.015,-10.360,9.940,-107.240
29,0.773,-0.607,-0.005,-22.890,10.290,-112.280
29,0.813,-0.579,0.004,-22.820,1.400,-122.920
29,0.840,-0.525,-0.023,-14.070,4.270,-127.120
29,0.829,-0.521,-0.032,-18.970,2.450,-130.550
29,0.847,-0.435,-0.019,-26.950,3.150,-144.900
29,0.914,-0.231,-0.026,-23.520,5.950,-135.940
29,0.895,-0.274,-0.040,-21.980,8.820,-128.870
29,0.895,-0.299,-0.019,-19.600,10.920,-151.270
29,0.902,-0.137,-0.012,-32.480,15.260,-168.980
29,0.916,0.014,0.019,-45.710,14.630,-170.940
29,0.886,-0.028,-0.003,-44.730,17.430,-176.190
29,0.931,0.153,0.058,-33.740,12.810,-188.860
29,0.877,0.217,0.049,-45.990,11.900,-187.250
29,0.810,0.251,0.038,-53.550,13.090,-197.190
29,0.731,0.257,0.093,-81.620,17.290,-218.050
29,0.661,0.319,0.148,-117.600,19.740,-243.110
29,0.623,0.558,0.217,-103.950,26.110,-255.010
29,0.551,0.691,0.206,-88.970,15.960,-256.970
29,0.406,0.763,0.181,-79.730,27.510,-253.050
29,0.376,0.908,0.307,-75.880,33.110,-240.100
29,0.334,1.123,0.369,-65.520,27.720,-186.130
29,0.270,0.975,0.442,-37.030,29.050,-168.770
29,0.205,1.320,0.434,-12.810,22.330,-140.700
29,0.173,1.309,0.394,-3.640,15.190,-80.710
29,0.111,1.098,0.408,0.350,12.530,-63.840
29,0.097,1.067,0.427,5.040,6.580,-47.810
29,0.094,1.033,0.402,2.100,-3.010,-35.910
29,0.082,1.077,0.346,5.880,-7.630,-21.420
29,0.057,1.082,0.324,9.940,-4.620,-7.140
29,0.054,1.098,0.295,12.880,1.890,9.940
30,0.360,-0.933,0.248,1.540,-5.670,6.300
30,0.359,-0.930,0.295,1.190,-7.980,10.920
30,0.334,-0.975,0.208,-1.820,-11.060,5.180
30,0.331,-0.954,0.213,-1.400,-6.860,4.970
30,0.338,-0.954,0.241,-0.560,-8.190,0.420
30,0.324,-0.962,0.236,-0.630,-7.700,-4.060
30,0.312,-0.970,0.169,-4.060,-7.490,-10.990
30,0.310,-1.008,0.245,-6.440,-4.690,-19.460
30,0.292,-1.158,0.243,-25.480,-12.670,-50.960
30,0.336,-1.027,0.189,-42.350,-6.790,-73.850
30,0.430,-0.794,0.193,-23.240,5.320,-59.990
30,0.422,-0.923,0.208,-9.520,0.630,-67.970
30,0.411,-1.050,0.223,-7.770,-2.170,-91.630
30,0.461,-0.949,0.224,-15.400,4.830,-120.680
30,0.535,-0.716,0.179,-40.880,2.730,-119.840
30,0.538,-0.863,0.161,-34.790,8.260,-136.850
30,0.567,-0.938,0.193,-38.990,0.630,-180.530
30,0.668,-0.660,0.189,-51.870,-10.010,-202.580
30,0.753,-0.534,0.143,-63.210,-5.460,-180.390
30,0.779,-0.487,0.132,-48.020,-9.870,-175.770
30,0.813,-0.506,0.144,-53.690,-4.480,-174.860
30,0.822,-0.508,0.158,-92.680,-12.320,-194.950
30,0.858,-0.272,0.045,-96.600,-15.890,-195.160
30,0.884,-0.182,0.005,-71.750,-7.700,-187.110
30,0.907,-0.092,0.037,-60.270,-10.710,-185.920
30,0.913,0.023,0.140,-78.400,-6.650,-188.230
30,0.892,0.076,0.076,-110.530,-8.540,-195.370
30,0.868,0.052,0.017,-163.310,-0.140,-208.740
30,0.833,0.209,-0.007,-110.390,20.160,-214.690
30,0.791,0.346,0.122,-73.990,43.050,-209.650
30,0.792,0.460,0.179,-24.220,58.800,-203.910
30,0.760,0.548,0.121,-38.150,55.930,-200.760
30,0.693,0.656,0.207,-24.710,62.160,-197.960
30,0.639,0.718,0.256,-13.370,57.750,-182.140
30,0.552,0.683,0.232,-15.680,55.230,-179.970
30,0.452,0.640,0.263,-26.320,55.230,-185.710
30,0.395,0.771,0.491,-37.660,46.900,-185.780
30,0.338,0.943,0.406,-43.610,29.050,-171.360
30,0.226,0.814,0.365,-51.520,21.630,-163.940
30,0.097,0.729,0.385,-59.780,28.350,-177.170
30,0.030,1.037,0.494,-66.080,27.090,-162.960
30,-0.022,1.097,0.487,-57.260,24.360,-138.180
30,-0.061,1.371,0.557,-30.380,19.390,-112.210
30,-0.088,1.346,0.604,-12.740,13.860,-66.010
30,-0.092,1.211,0.598,0.420,3.920,-28.490
30,-0.081,1.022,0.579,2.170,-8.610,-8.260
30,-0.080,0.907,0.494,-3.500,-13.930,-2.520
30,-0.078,0.945,0.450,-4.130,-14.490,-0.280
30,-0.074,1.017,0.433,-0.700,-12.040,10.990
30,-0.060,0.965,0.433,-0.490,-6.790,20.020
31,0.418,-0.908,0.174,-0.350,-12.810,-21.210
31,0.421,-0.928,0.187,-2.240,-9.030,-21.420
31,0.420,-0.966,0.233,-2.030,-11.340,-28.420
31,0.406,-1.056,0.253,-5.530,-17.570,-45.080
31,0.403,-1.074,0.261,-10.990,-22.470,-74.410
31,0.443,-1.078,0.160,-24.220,-19.040,-103.180
31,0.499,-0.915,0.181,-24.640,-14.910,-124.110
31,0.511,-0.812,0.143,-24.640,-13.580,-131.040
31,0.550,-0.842,0.114,-35.700,-17.220,-145.110
31,0.596,-0.738,0.092,-39.970,-4.900,-150.850
31,0.680,-0.712,0.087,-67.410,6.440,-166.880
31,0.708,-0.568,0.046,-59.570,17.080,-161.980
31,0.768,-0.525,0.061,-77.140,20.930,-147.350
31,0.844,-0.454,0.170,-86.520,15.960,-142.450
31,0.875,-0.411,0.134,-92.540,5.950,-136.640
31,0.901,-0.448,0.175,-86.940,-5.250,-145.040
31,0.916,-0.384,0.059,-70.770,-11.340,-148.120
31,0.907,-0.269,0.029,-76.860,-8.820,-151.760
31,0.935,-0.147,0.041,-80.640,-3.850,-133.490
31,0.924,-0.147,-0.036,-73.360,0.000,-130.830
31,0.917,-0.092,-0.003,-62.930,8.960,-143.080
31,0.895,-0.041,-0.018,-74.900,17.710,-146.020
31,0.881,0.015,0.053,-100.170,26.740,-151.410
31,0.889,0.093,0.125,-100.450,28.210,-157.150
31,0.750,0.207,0.156,-93.100,24.150,-171.500
31,0.813,0.223,0.154,-96.810,22.680,-188.650
31,0.703,0.303,0.083,-102.270,33.880,-208.530
31,0.655,0.450,0.188,-93.030,51.520,-223.720
31,0.630,0.758,0.243,-73.360,58.660,-222.110
31,0.566,0.852,0.297,-74.760,58.800,-196.140
31,0.528,0.845,0.393,-71.750,57.190,-168.700
31,0.490,0.863,0.421,-64.470,54.040,-143.080
31,0.453,1.044,0.519,-37.730,46.970,-127.750
31,0.400,1.030,0.450,-42.280,36.750,-90.720
31,0.330,0.831,0.384,-33.390,42.490,-83.020
31,0.272,0.718,0.410,-32.900,51.030,-88.200
31,0.208,0.614,0.346,-16.240,72.730,-113.400
31,0.209,0.943,0.619,9.450,72.240,-121.730
31,0.180,1.198,0.663,15.260,51.520,-88.760
31,0.126,1.160,0.600,16.520,35.910,-55.020
31,0.103,1.107,0.586,22.330,30.170,-32.340
31,0.105,0.986,0.609,19.110,17.430,-15.890
31,0.094,0.888,0.548,12.530,5.250,-13.720
31,0.081,0.922,0.499,12.040,1.400,-13.930
31,0.075,0.953,0.468,13.720,1.190,-7.420
31,0.076,0.961,0.447,13.020,0.980,-2.730
31,0.082,0.938,0.453,11.060,1.960,2.940
31,0.081,0.925,0.445,6.790,3.290,7.630
31,0.084,0.925,0.453,-1.610,4.760,12.180
31,0.089,0.926,0.479,-16.030,5.950,15.260
32,0.460,-0.847,0.456,-21.420,-10.570,-10.220
32,0.442,-0.861,0.398,-28.070,-12.320,-15.120
32,0.435,-0.889,0.343,-43.190,-3.010,-23.730
32,0.391,-0.938,0.329,-47.880,6.300,-42.280
32,0.408,-1.045,0.337,-47.460,18.480,-90.020
32,0.390,-0.879,0.363,-77.210,35.280,-122.640
32,0.454,-0.864,0.429,-104.510,32.970,-128.520
32,0.521,-0.854,0.478,-93.310,5.810,-137.900
32,0.588,-0.848,0.381,-69.510,-21.280,-154.840
32,0.665,-0.797,0.290,-44.520,-32.900,-174.300
32,0.730,-0.625,0.291,-55.790,-49.770,-172.690
32,0.755,-0.518,0.148,-53.340,-52.920,-169.890
32,0.778,-0.506,0.137,-48.650,-52.990,-169.050
32,0.799,-0.516,0.037,-46.060,-53.130,-181.090
32,0.866,-0.380,0.069,-34.230,-52.290,-181.090
32,0.903,-0.228,0.036,-12.950,-50.050,-160.860
32,0.898,-0.225,-0.017,-21.140,-40.810,-149.520
32,0.895,-0.168,0.037,-33.180,-31.080,-141.960
32,0.928,-0.088,-0.016,-26.250,-30.870,-148.190
32,0.954,0.046,-0.009,-37.170,-26.530,-150.780
32,0.958,0.120,-0.049,-55.930,-25.270,-145.040
32,0.947,0.198,-0.047,-56.280,-17.220,-142.240
32,0.923,0.286,-0.067,-43.190,-17.570,-133.000
32,0.920,0.319,-0.035,-29.120,-13.300,-130.760
32,0.891,0.398,-0.091,-18.690,-10.080,-128.730
32,0.874,0.409,-0.036,-7.910,-8.120,-126.980
32,0.857,0.461,-0.038,-16.170,-8.680,-126.770
32,0.840,0.504,0.004,-17.290,-7.840,-125.300
32,0.772,0.510,-0.038,-35.210,-11.690,-129.990
32,0.726,0.592,-0.020,-18.340,-12.530,-132.650
32,0.678,0.669,-0.051,-35.210,-7.280,-130.200
32,0.622,0.661,0.007,-46.410,-1.890,-130.550
32,0.542,0.623,0.023,-47.670,-6.230,-141.750
32,0.403,0.534,0.004,-66.220,6.160,-159.390
32,0.350,0.540,0.114,-59.080,18.410,-203.000
32,0.212,0.632,0.183,-76.720,6.790,-236.390
32,0.072,0.598,0.313,-145.600,12.110,-243.390
32,0.007,1.002,0.448,-138.320,11.970,-249.340
32,-0.046,1.486,0.385,-94.850,7.140,-215.530
32,-0.080,1.745,0.277,-76.580,-1.540,-131.320
32,-0.123,1.399,0.377,-58.450,0.700,-80.500
32,-0.149,1.193,0.419,-26.320,1.190,-63.770
32,-0.156,1.138,0.442,-8.610,-4.060,-42.210
32,-0.183,1.077,0.423,2.240,-12.740,-26.250
32,-0.210,1.051,0.361,4.900,-12.320,-12.180
32,-0.205,1.064,0.322,4.970,-10.080,1.330
32,-0.197,1.021,0.279,10.360,-4.480,10.010
32,-0.165,0.964,0.306,13.720,3.570,11.830
32,-0.125,0.972,0.313,12.180,7.000,16.660
32,-0.101,0.953,0.377,7.560,2.170,20.720
33,0.335,-0.914,0.391,-22.890,-11.900,-22.680
33,0.351,-0.943,0.407,-26.110,-19.390,-30.870
33,0.343,-0.997,0.385,-35.420,-29.260,-44.940
33,0.414,-0.865,0.309,-48.090,-29.260,-60.130
33,0.444,-0.844,0.305,-50.820,-25.060,-56.630
33,0.419,-0.955,0.314,-38.220,-43.890,-67.060
33,0.403,-0.979,0.205,-33.320,-43.680,-84.770
33,0.527,-0.731,0.128,-33.600,-28.140,-77.770
33,0.554,-0.753,0.162,-26.880,-23.240,-66.640
33,0.551,-0.858,0.192,-26.110,-25.410,-74.060
33,0.569,-0.845,0.170,-38.850,-22.890,-86.240
33,0.612,-0.781,0.079,-29.890,-14.280,-90.230
33,0.630,-0.792,0.065,-18.130,-3.500,-96.180
33,0.663,-0.745,0.136,-17.290,7.910,-106.260
33,0.691,-0.700,0.113,-16.520,17.990,-120.330
33,0.744,-0.510,0.181,-23.310,13.300,-119.770
33,0.810,-0.493,0.156,-40.460,0.420,-110.320
33,0.816,-0.543,0.086,-48.440,-1.190,-110.950
33,0.835,-0.510,0.077,-52.640,3.220,-116.830
33,0.867,-0.439,0.101,-60.690,-0.910,-124.460
33,0.914,-0.271,0.084,-58.450,-3.080,-108.570
33,0.894,-0.366,0.073,-55.160,-5.040,-110.180
33,0.939,-0.294,0.112,-53.130,-10.010,-123.410
33,0.959,-0.210,0.091,-72.800,-14.700,-125.510
33,0.996,-0.048,0.081,-68.810,-20.370,-115.780
33,0.970,-0.015,-0.008,-58.870,-20.090,-105.560
33,0.960,-0.044,-0.009,-54.460,-13.020,-107.520
33,0.970,0.002,0.040,-54.180,-11.620,-114.730
33,0.969,0.069,0.048,-48.510,-16.450,-112.700
33,0.957,0.154,-0.003,-64.610,-13.930,-115.290
33,0.955,0.197,-0.020,-76.160,-6.230,-118.160
33,0.968,0.243,0.028,-70.560,1.540,-115.780
33,0.935,0.337,0.034,-70.630,9.520,-100.450
33,0.883,0.263,0.004,-74.760,16.380,-103.950
33,0.835,0.202,0.057,-75.250,29.400,-129.710
33,0.801,0.295,0.079,-80.710,37.520,-156.310
33,0.722,0.397,0.065,-71.190,52.010,-167.650
33,0.652,0.347,0.109,-74.550,59.640,-181.790
33,0.585,0.445,0.241,-80.430,77.210,-194.740
33,0.539,0.569,0.334,-87.570,75.810,-197.680
33,0.455,0.668,0.421,-102.690,70.000,-193.200
33,0.366,0.690,0.452,-98.630,68.320,-186.130
33,0.312,0.822,0.479,-68.950,73.150,-196.000
33,0.313,1.339,0.611,-34.370,69.510,-165.970
33,0.293,1.387,0.708,-28.910,49.280,-95.760
33,0.237,1.206,0.680,-16.100,26.320,-54.670
33,0.185,0.972,0.654,-9.310,16.100,-32.830
33,0.163,0.860,0.627,-2.450,9.380,-31.570
33,0.150,0.871,0.610,-1.050,3.220,-29.890
33,0.138,0.906,0.585,-3.080,-3.710,-25.340
34,0.381,-0.908,0.309,-0.980,-40.670,-6.930
34,0.394,-0.855,0.252,-2.940,-35.770,-5.250
34,0.387,-0.920,0.282,-9.030,-31.640,-6.790
34,0.389,-0.905,0.248,-14.350,-27.510,-11.970
34,0.391,-0.929,0.264,-22.680,-22.680,-18.060
34,0.402,-0.941,0.244,-41.440,-15.050,-28.210
34,0.427,-0.925,0.269,-32.410,-15.330,-36.680
34,0.449,-0.933,0.246,-27.650,-26.250,-53.480
34,0.497,-0.878,0.177,-31.290,-22.260,-60.200
34,0.515,-0.927,0.203,-48.090,-21.280,-75.530
34,0.543,-0.855,0.152,-45.990,-22.330,-82.180
34,0.553,-0.864,0.174,-49.630,-19.390,-92.750
34,0.578,-0.845,0.144,-30.800,-24.780,-102.410
34,0.651,-0.753,0.080,-20.580,-20.020,-103.250
34,0.667,-0.823,0.156,-12.950,-14.840,-126.980
34,0.676,-0.808,0.109,-42.910,-25.760,-140.630
34,0.741,-0.535,0.143,-60.830,-25.620,-134.540
34,0.785,-0.453,0.028,-58.660,-9.660,-131.670
34,0.836,-0.421,0.044,-58.940,-6.370,-124.740
34,0.863,-0.412,0.008,-64.400,-15.750,-123.760
34,0.892,-0.380,-0.094,-75.390,-5.390,-122.780
34,0.902,-0.421,-0.001,-92.890,6.930,-139.020
34,0.946,-0.180,-0.040,-89.880,12.670,-147.140
34,0.942,-0.122,-0.015,-70.350,2.800,-143.220
34,0.939,-0.139,-0.044,-42.630,-1.120,-150.150
34,0.956,-0.033,-0.081,-51.870,3.010,-148.540
34,0.942,0.048,-0.039,-53.760,12.110,-138.950
34,0.936,0.090,-0.035,-63.140,14.910,-136.290
34,0.920,0.176,-0.017,-55.510,26.390,-132.020
34,0.923,0.237,0.038,-23.590,22.750,-123.830
34,0.906,0.231,0.102,-9.380,11.060,-123.480
34,0.853,0.209,0.056,0.350,7.210,-144.690
34,0.810,0.194,0.073,19.180,-0.490,-180.530
34,0.771,0.414,0.109,39.130,-5.600,-207.060
34,0.739,0.613,-0.041,55.020,-3.220,-212.520
34,0.628,0.560,0.072,41.720,-7.630,-220.850
34,0.545,0.666,0.059,23.730,-22.540,-224.560
34,0.486,0.916,-0.027,11.340,-23.730,-206.360
34,0.425,0.992,-0.030,-11.620,-21.210,-174.580
34,0.371,1.078,-0.048,-12.740,-21.700,-145.180
34,0.320,1.169,-0.086,1.750,-19.250,-117.530
34,0.287,1.191,-0.072,16.310,-15.820,-87.990
34,0.227,1.026,-0.043,27.930,-16.380,-73.920
34,0.202,0.986,-0.020,27.090,-18.970,-75.390
34,0.180,0.986,-0.012,-4.200,-20.720,-69.650
34,0.164,1.075,-0.035,-20.020,-26.810,-63.910
34,0.137,1.231,-0.135,-27.160,-22.260,-38.780
34,0.103,1.196,-0.164,-22.680,-9.100,-16.240
34,0.102,1.101,-0.112,-22.540,3.570,-4.620
34,0.126,0.977,-0.008,-20.790,5.390,-2.380
35,0.635,-0.791,0.130,18.130,0.280,-5.740
35,0.632,-0.804,0.118,6.650,4.970,-8.680
35,0.647,-0.858,0.169,-0.630,5.530,-23.240
35,0.665,-0.808,0.211,-4.060,2.240,-36.260
35,0.675,-0.879,0.216,-8.330,-2.730,-51.520
35,0.666,-0.982,0.184,-13.720,-6.930,-84.840
35,0.682,-0.822,0.176,-24.150,-3.010,-115.220
35,0.713,-0.626,0.183,-33.740,-7.140,-120.260
35,0.734,-0.554,0.120,-31.010,-8.190,-113.260
35,0.752,-0.654,0.070,-22.400,-6.440,-121.520
35,0.764,-0.778,0.092,-14.000,0.140,-161.840
35,0.858,-0.190,0.220,-1.960,-7.280,-175.070
35,0.907,-0.044,0.142,11.480,-20.230,-121.800
35,0.935,-0.412,0.088,36.190,-28.140,-126.210
35,0.935,-0.442,0.143,47.810,-30.030,-158.620
35,0.970,0.058,0.169,36.400,-29.190,-149.030
35,0.991,0.097,0.130,31.640,-28.000,-110.810
35,0.986,-0.049,0.097,26.180,-35.910,-111.790
35,0.973,-0.117,0.060,9.100,-39.900,-120.680
35,0.943,-0.068,0.071,-15.470,-46.410,-140.000
35,0.920,0.259,-0.047,-20.020,-42.700,-125.790
35,0.918,0.152,-0.020,-27.720,-37.590,-118.020
35,0.921,0.137,0.020,-25.900,-34.160,-133.000
35,0.904,0.492,-0.031,-12.040,-36.050,-125.090
35,0.873,0.508,-0.085,0.630,-25.760,-98.420
35,0.858,0.339,-0.057,-2.100,-20.020,-102.970
35,0.863,0.389,0.013,-4.900,-25.340,-123.830
35,0.839,0.684,-0.057,0.980,-32.410,-107.870
35,0.789,0.664,-0.110,0.490,-29.540,-87.780
35,0.766,0.607,-0.081,0.560,-27.090,-82.810
35,0.746,0.688,-0.091,-7.420,-27.580,-75.390
35,0.712,0.640,-0.111,-14.560,-24.290,-73.150
35,0.678,0.572,-0.091,-20.370,-25.130,-87.220
35,0.641,0.583,-0.055,-17.220,-29.400,-113.890
35,0.591,0.699,-0.082,-5.810,-32.900,-126.350
35,0.494,0.569,-0.117,-18.130,-32.410,-147.280
35,0.419,0.553,-0.025,-26.390,-34.790,-195.650
35,0.309,0.978,-0.116,-0.350,-46.550,-193.480
35,0.206,0.782,-0.089,-38.430,-34.790,-188.090
35,0.139,1.052,-0.042,-29.050,-37.240,-196.630
35,0.077,1.295,-0.120,-29.680,-32.760,-156.240
35,0.028,1.439,-0.167,-21.560,-23.030,-106.960
35,0.005,1.317,-0.112,-16.310,-12.600,-60.760
35,0.006,1.102,-0.037,-10.780,-13.370,-49.420
35,-0.013,1.077,-0.040,-11.130,-15.680,-39.270
35,-0.030,1.084,-0.059,-7.280,-16.450,-31.920
35,-0.050,1.083,-0.082,-5.250,-13.650,-22.120
35,-0.062,1.091,-0.094,-2.170,-8.960,-13.510
35,-0.057,1.082,-0.084,0.840,-2.870,-3.290
35,-0.045,1.056,-0.071,2.870,0.000,4.340
36,0.518,-0.944,0.197,-29.470,-21.070,-29.400
36,0.540,-0.964,0.296,-32.410,-32.620,-50.050
36,0.496,-1.166,0.224,-52.570,-38.080,-98.280
36,0.518,-1.116,0.156,-78.960,-28.210,-151.690
36,0.571,-0.892,0.143,-67.690,-3.430,-166.180
36,0.654,-0.646,0.231,-41.860,-2.030,-162.400
36,0.729,-0.578,0.192,-16.870,-23.310,-155.190
36,0.716,-0.508,0.107,-20.510,-39.340,-153.860
36,0.778,-0.441,0.033,-8.330,-37.170,-137.270
36,0.824,-0.423,0.029,-11.200,-33.320,-120.540
36,0.858,-0.432,0.056,-10.990,-29.680,-122.850
36,0.894,-0.358,0.017,-31.780,-31.640,-126.840
36,0.940,-0.210,0.004,-18.410,-24.430,-116.340
36,0.922,-0.220,-0.019,-6.790,-20.370,-105.980
36,0.929,-0.264,-0.036,-9.590,-18.270,-111.720
36,0.951,-0.179,-0.011,-9.800,-16.450,-122.360
36,0.965,-0.008,0.007,-17.220,-16.800,-101.850
36,0.944,-0.048,-0.053,-13.160,-13.510,-93.730
36,0.976,-0.072,-0.022,-11.970,-8.680,-101.500
36,0.987,0.031,0.004,-10.710,-9.310,-103.530
36,0.973,0.127,-0.034,-14.350,-6.020,-95.410
36,0.966,0.158,-0.022,-12.670,-7.770,-88.200
36,0.965,0.174,-0.043,-11.200,-2.660,-89.600
36,0.949,0.233,-0.020,-5.530,-6.860,-89.600
36,0.947,0.274,-0.026,-9.660,-10.500,-91.210
36,0.935,0.318,-0.012,-9.870,-11.970,-90.230
36,0.911,0.327,-0.031,-7.420,-13.370,-93.590
36,0.900,0.399,-0.040,-5.670,-13.020,-91.490
36,0.876,0.455,-0.044,-9.660,-12.670,-88.760
36,0.860,0.498,-0.037,-8.120,-11.760,-86.520
36,0.828,0.490,-0.073,-12.390,-9.660,-85.610
36,0.814,0.508,-0.042,-20.580,-8.470,-88.620
36,0.802,0.581,-0.009,-27.930,-10.290,-88.060
36,0.767,0.631,-0.038,-27.160,-12.460,-87.290
36,0.739,0.722,-0.030,-34.930,-11.060,-75.390
36,0.732,0.830,-0.009,-35.420,-13.230,-53.760
36,0.710,0.752,-0.008,-33.740,-12.740,-43.330
36,0.690,0.649,-0.001,-40.320,-10.920,-51.170
36,0.681,0.620,0.005,-42.910,-10.920,-69.300
36,0.670,0.660,0.050,-41.020,-12.530,-85.260
36,0.630,0.732,0.061,-35.700,-16.660,-95.690
36,0.576,0.760,0.037,-33.530,-15.260,-102.550
36,0.536,0.847,0.073,-28.070,-12.880,-106.260
36,0.497,0.930,0.051,-21.910,-10.080,-98.420
36,0.448,0.844,0.054,-25.970,-7.840,-96.180
36,0.402,0.823,0.070,-29.400,-7.560,-105.280
36,0.348,0.808,0.094,-32.410,-7.630,-118.090
36,0.289,0.908,0.105,-31.360,-6.720,-126.630
36,0.230,0.944,0.116,-28.560,-6.300,-126.280
36,0.176,0.955,0.142,-29.330,-4.900,-123.900
37,0.477,-0.937,0.167,-7.630,-12.530,-9.170
37,0.486,-0.943,0.170,-10.780,-18.270,-21.420
37,0.470,-0.977,0.120,-18.760,-17.570,-40.110
37,0.477,-0.997,0.118,-30.590,-13.090,-66.640
37,0.517,-0.898,0.097,-34.650,-10.430,-88.620
37,0.579,-0.768,0.112,-28.630,-10.500,-87.360
37,0.606,-0.825,0.096,-25.130,-9.310,-89.320
37,0.628,-0.855,0.055,-12.320,-7.420,-105.490
37,0.687,-0.801,0.046,-21.210,-3.780,-122.780
37,0.768,-0.659,0.122,-28.770,-5.950,-128.730
37,0.731,-0.610,0.040,-42.700,-14.350,-129.850
37,0.783,-0.578,0.035,-58.100,-10.290,-143.430
37,0.816,-0.474,-0.057,-54.040,-5.600,-147.210
37,0.883,-0.384,0.032,-45.430,-6.090,-139.790
37,0.905,-0.284,0.021,-30.380,-5.110,-118.790
37,0.924,-0.304,-0.035,-26.600,-5.670,-107.660
37,0.936,-0.315,-0.031,-32.130,-3.360,-110.740
37,0.962,-0.174,-0.002,-23.170,-2.940,-106.890
37,0.976,-0.058,0.023,0.770,-3.430,-92.400
37,0.991,-0.086,0.011,8.120,2.590,-82.670
37,0.973,-0.118,-0.032,3.220,3.850,-80.570
37,0.986,-0.055,0.038,-11.900,0.700,-80.710
37,0.998,-0.013,0.030,-12.390,-5.320,-79.520
37,0.989,0.031,0.009,-17.570,-5.390,-77.700
37,0.977,0.013,-0.003,-25.340,-3.080,-80.150
37,0.981,0.010,-0.001,-33.250,-3.710,-87.150
37,0.975,0.148,0.002,-40.460,-6.160,-72.030
37,0.963,0.190,0.041,-39.550,-2.380,-89.810
37,0.949,0.233,0.015,-37.240,-7.630,-89.740
37,0.927,0.155,-0.009,-45.710,-2.450,-109.060
37,0.930,0.407,0.095,-41.230,-6.160,-113.470
37,0.875,0.542,-0.010,-28.630,-7.840,-84.910
37,0.862,0.446,0.004,-12.810,7.420,-80.010
37,0.887,0.469,0.049,-13.790,7.980,-78.960
37,0.876,0.459,0.049,-24.640,3.290,-76.090
37,0.850,0.440,0.041,-33.880,3.990,-84.140
37,0.815,0.434,0.046,-40.180,4.270,-99.680
37,0.797,0.555,0.135,-36.820,5.110,-117.530
37,0.737,0.639,0.090,-35.280,3.150,-114.310
37,0.697,0.516,0.073,-44.240,9.520,-127.330
37,0.646,0.455,0.122,-55.860,16.870,-165.970
37,0.569,0.653,0.214,-53.900,7.630,-186.480
37,0.462,0.723,0.190,-57.750,5.670,-189.700
37,0.350,0.813,0.205,-48.580,4.900,-193.130
37,0.259,0.625,0.218,-81.620,8.120,-195.160
37,0.157,0.607,0.336,-102.200,12.740,-224.070
37,0.030,0.866,0.365,-85.470,15.050,-235.410
37,-0.140,1.610,0.485,-44.310,12.810,-180.880
37,-0.189,1.524,0.421,-39.550,2.310,-85.750
37,-0.146,1.068,0.423,-33.390,5.460,-59.780
38,0.468,-0.970,0.213,-6.300,-19.880,-12.810
38,0.469,-0.985,0.207,-19.950,-22.050,-34.510
38,0.477,-1.038,0.198,-38.290,-20.580,-61.740
38,0.484,-1.081,0.168,-60.270,-12.810,-101.710
38,0.549,-0.935,0.163,-56.560,-0.910,-126.630
38,0.590,-0.794,0.149,-37.310,-5.600,-141.610
38,0.624,-0.751,0.131,-22.540,-10.360,-164.150
38,0.687,-0.640,0.117,-20.300,-14.700,-168.980
38,0.732,-0.476,0.071,-30.730,-19.180,-150.990
38,0.785,-0.418,0.028,-28.630,-16.520,-126.000
38,0.835,-0.415,0.025,-14.980,-12.600,-114.870
38,0.867,-0.376,0.042,-10.920,-10.290,-114.100
38,0.917,-0.289,0.062,-2.030,-8.330,-105.280
38,0.901,-0.324,0.001,-23.240,-10.360,-97.860
38,0.988,-0.243,0.098,-30.870,-8.260,-88.270
38,0.982,-0.266,0.065,-27.650,-10.010,-82.390
38,0.962,-0.220,0.023,-27.930,-12.600,-80.290
38,0.995,-0.241,0.058,-28.420,-16.730,-81.900
38,1.018,-0.146,0.089,-20.440,-12.810,-81.130
38,0.979,-0.133,-0.002,-27.790,-17.290,-83.160
38,0.979,-0.063,-0.004,-21.000,-15.610,-81.550
38,0.983,-0.053,0.005,-16.450,-14.840,-84.140
38,0.972,0.032,-0.007,-18.200,-14.840,-79.800
38,0.974,0.083,-0.015,-10.640,-12.740,-73.850
38,0.992,0.106,-0.045,-13.860,-10.990,-77.910
38,0.992,0.140,0.024,-17.640,-13.230,-78.400
38,0.951,0.189,-0.045,-22.400,-13.440,-76.300
38,0.967,0.184,-0.007,-22.120,-10.150,-78.470
38,0.956,0.235,-0.015,-23.170,-7.560,-84.000
38,0.941,0.246,-0.034,-32.550,-5.740,-84.840
38,0.910,0.247,-0.071,-32.830,9.660,-86.030
38,0.904,0.341,0.015,-35.280,14.700,-98.910
38,0.890,0.494,0.035,-25.830,12.040,-85.680
38,0.872,0.453,0.038,-36.890,9.660,-81.550
38,0.847,0.405,0.003,-38.990,12.250,-91.630
38,0.841,0.504,0.090,-38.780,9.100,-101.080
38,0.779,0.629,0.068,-40.740,4.060,-99.330
38,0.738,0.621,0.070,-44.100,8.750,-97.300
38,0.725,0.597,0.080,-45.920,13.300,-102.900
38,0.722,0.674,0.137,-44.730,14.350,-105.280
38,0.681,0.708,0.138,-47.320,15.190,-98.140
38,0.636,0.641,0.109,-52.220,26.460,-98.210
38,0.624,0.671,0.226,-45.990,28.140,-114.870
38,0.566,0.710,0.238,-46.690,27.160,-123.970
38,0.495,0.674,0.241,-53.130,29.820,-137.200
38,0.404,0.711,0.238,-53.760,35.000,-158.550
38,0.305,0.811,0.311,-55.230,41.300,-171.570
38,0.216,0.925,0.353,-52.640,41.230,-169.470
38,0.130,0.978,0.378,-47.670,39.760,-159.740
38,0.047,1.000,0.412,-53.200,36.400,-137.410
39,0.620,-0.805,0.140,-2.520,-19.600,-15.540
39,0.624,-0.835,0.118,-1.890,-21.350,-21.420
39,0.619,-0.844,0.090,-6.580,-19.880,-25.900
39,0.635,-0.935,0.099,-15.680,-16.240,-44.100
39,0.644,-0.986,0.091,-30.030,-15.120,-73.010
39,0.692,-0.882,0.119,-35.770,-16.520,-93.520
39,0.708,-0.713,0.110,-34.090,-20.720,-100.310
39,0.697,-0.641,0.038,-30.660,-18.970,-89.040
39,0.715,-0.754,-0.018,-47.740,-12.600,-103.040
39,0.754,-0.669,-0.021,-66.430,-3.780,-115.500
39,0.762,-0.441,-0.054,-67.760,6.090,-107.240
39,0.802,-0.391,-0.040,-54.110,6.230,-90.230
39,0.870,-0.502,0.011,-52.850,5.880,-99.960
39,0.890,-0.498,-0.032,-54.460,1.050,-114.660
39,0.877,-0.357,-0.071,-55.370,0.140,-116.900
39,0.893,-0.202,-0.079,-56.700,7.840,-98.560
39,0.917,-0.292,-0.069,-69.440,17.290,-96.740
39,0.952,-0.211,-0.018,-79.870,20.580,-102.620
39,0.964,-0.058,-0.010,-75.600,14.420,-83.720
39,0.956,-0.027,-0.017,-64.260,13.510,-74.340
39,0.981,-0.067,-0.007,-51.520,15.050,-80.150
39,0.993,-0.057,-0.007,-48.580,12.110,-88.690
39,0.980,0.001,-0.023,-54.320,9.800,-93.800
39,0.969,0.060,-0.017,-54.950,10.920,-93.590
39,0.957,0.073,0.006,-55.090,17.570,-97.370
39,0.956,0.141,0.017,-49.630,18.830,-106.050
39,0.943,0.193,0.027,-41.230,18.410,-112.420
39,0.910,0.240,0.036,-34.020,20.720,-125.790
39,0.912,0.366,0.098,-36.400,15.960,-128.310
39,0.885,0.374,0.047,-40.740,15.540,-124.530
39,0.836,0.378,0.062,-44.660,17.500,-135.170
39,0.820,0.502,0.105,-47.180,19.320,-140.560
39,0.768,0.591,0.110,-43.330,22.610,-134.680
39,0.699,0.567,0.103,-38.290,30.100,-144.340
39,0.651,0.600,0.091,-35.140,45.220,-157.640
39,0.622,0.675,0.181,-39.550,51.030,-156.240
39,0.562,0.633,0.211,-38.920,58.100,-164.360
39,0.478,0.725,0.256,-46.760,55.860,-174.580
39,0.387,0.588,0.246,-60.200,64.820,-185.920
39,0.322,0.405,0.266,-74.060,78.890,-245.280
39,0.123,0.830,0.596,-68.670,67.690,-257.320
39,0.013,1.014,0.608,-97.510,31.500,-198.520
39,-0.055,0.749,0.514,-123.410,20.930,-169.330
39,-0.171,1.037,0.630,-92.610,36.610,-173.320
39,-0.315,1.440,0.722,-68.390,27.300,-114.450
39,-0.305,1.377,0.788,-37.450,16.940,-59.710
39,-0.245,1.061,0.709,-17.710,3.640,-21.070
39,-0.201,0.817,0.637,-5.600,1.190,-12.880
39,-0.209,0.809,0.620,-0.280,-2.380,-11.690
39,-0.230,0.847,0.603,1.820,-4.130,-8.050
40,0.532,-0.839,0.164,3.780,-7.770,0.560
40,0.519,-0.912,0.142,1.610,-8.400,-5.600
40,0.518,-0.901,0.150,-5.180,-3.220,-12.460
40,0.540,-0.930,0.179,-9.380,-4.410,-22.470
40,0.558,-1.095,0.185,-21.980,-7.000,-58.170
40,0.578,-0.966,0.191,-25.130,-10.920,-97.650
40,0.617,-0.624,0.209,-20.860,-23.590,-86.660
40,0.627,-0.727,0.128,-10.360,-29.120,-78.400
40,0.630,-0.918,0.046,-16.590,-24.080,-104.020
40,0.643,-1.002,0.009,-46.970,-1.120,-146.650
40,0.651,-0.834,-0.006,-76.720,22.750,-170.660
40,0.688,-0.581,0.043,-75.530,39.340,-171.850
40,0.770,-0.503,0.145,-61.390,44.520,-162.610
40,0.834,-0.291,0.189,-42.210,33.110,-157.920
40,0.898,-0.088,0.161,-29.750,22.960,-123.200
40,0.937,-0.239,0.154,-23.310,6.510,-108.220
40,0.963,-0.329,0.130,-25.760,-9.380,-121.240
40,0.985,-0.132,0.133,-33.530,-14.210,-121.030
40,0.976,-0.044,0.095,-33.250,-10.710,-102.200
40,0.963,-0.114,0.071,-33.530,-9.380,-105.490
40,0.989,-0.073,0.106,-37.520,-14.840,-116.060
40,0.971,0.070,0.078,-31.570,-13.230,-112.140
40,0.957,0.043,0.071,-27.860,-10.990,-110.950
40,0.947,0.052,0.044,-36.890,-11.410,-119.630
40,0.955,0.170,0.065,-40.180,-12.670,-125.860
40,0.930,0.349,0.042,-40.670,-12.390,-107.170
40,0.911,0.258,0.015,-35.490,-4.550,-100.940
40,0.924,0.221,0.059,-33.670,1.750,-121.450
40,0.927,0.396,0.130,-37.940,-2.310,-123.200
40,0.854,0.607,0.101,-30.310,-7.560,-93.240
40,0.826,0.462,0.023,-41.790,-1.750,-78.750
40,0.848,0.468,0.107,-48.090,0.140,-88.550
40,0.829,0.591,0.143,-43.050,-1.400,-87.640
40,0.780,0.526,0.091,-35.630,1.680,-94.010
40,0.751,0.421,0.082,-37.520,14.210,-121.590
40,0.721,0.383,0.166,-52.080,22.120,-161.630
40,0.647,0.840,0.242,-44.450,10.570,-158.340
40,0.569,0.761,0.175,-36.470,19.390,-135.520
40,0.528,0.527,0.173,-47.530,35.910,-154.910
40,0.443,0.528,0.289,-50.120,40.250,-209.020
40,0.297,0.943,0.329,-38.990,36.050,-206.640
40,0.217,0.853,0.326,-55.720,23.660,-180.040
40,0.145,0.670,0.323,-68.810,20.580,-202.720
40,-0.003,1.318,0.488,-45.990,14.350,-193.340
40,-0.076,1.509,0.482,-24.220,-2.800,-108.850
40,-0.081,1.082,0.340,-14.140,3.290,-68.460
40,-0.067,0.913,0.386,-10.990,13.930,-69.370
40,-0.072,0.963,0.414,-13.440,12.600,-61.110
40,-0.112,1.090,0.468,-5.180,6.510,-50.820
40,-0.147,1.101,0.454,-1.400,2.380,-25.620
41,0.641,-0.626,0.533,-4.410,-11.620,13.930
41,0.617,-0.673,0.474,-9.450,-9.870,11.060
41,0.630,-0.584,0.484,-12.180,-5.320,11.970
41,0.618,-0.699,0.497,-12.740,-5.110,8.190
41,0.617,-0.770,0.501,-10.640,-7.980,-3.290
41,0.619,-0.873,0.557,-18.200,-14.420,-30.660
41,0.669,-0.681,0.571,-32.620,-28.770,-51.030
41,0.678,-0.770,0.586,-33.180,-45.710,-70.980
41,0.672,-0.814,0.501,-45.780,-58.030,-103.180
41,0.724,-0.549,0.466,-77.070,-63.210,-118.160
41,0.732,-0.458,0.387,-82.600,-50.680,-114.030
41,0.761,-0.541,0.285,-82.530,-51.030,-103.670
41,0.782,-0.581,0.266,-112.840,-52.430,-113.680
41,0.827,-0.409,0.220,-85.960,-60.270,-114.450
41,0.846,-0.412,0.200,-55.300,-57.260,-117.880
41,0.872,-0.455,0.086,-46.480,-46.900,-132.020
41,0.872,-0.390,0.103,-47.110,-41.300,-147.420
41,0.895,-0.175,0.106,-45.290,-36.120,-142.940
41,0.929,-0.135,0.122,-46.480,-35.560,-131.880
41,0.950,-0.057,0.086,-48.720,-32.620,-137.200
41,0.961,0.037,0.047,-57.750,-30.240,-121.870
41,0.950,0.056,0.032,-62.860,-27.930,-121.870
41,0.937,0.128,0.018,-62.930,-27.930,-119.770
41,0.927,0.165,-0.019,-64.750,-19.390,-114.380
41,0.927,0.201,-0.001,-65.520,-10.570,-111.020
41,0.931,0.400,0.081,-63.770,-16.100,-105.210
41,0.917,0.402,0.025,-51.730,-13.160,-87.010
41,0.896,0.345,-0.001,-51.380,-6.370,-82.040
41,0.884,0.283,0.012,-60.620,0.070,-93.800
41,0.876,0.347,0.082,-59.920,-0.840,-103.390
41,0.860,0.476,0.100,-55.440,-9.310,-104.930
41,0.811,0.408,0.068,-52.990,-4.410,-118.720
41,0.747,0.328,0.054,-68.180,5.810,-143.920
41,0.669,0.394,0.129,-84.770,13.160,-173.600
41,0.576,0.458,0.183,-93.380,19.950,-195.930
41,0.480,0.439,0.259,-105.280,23.100,-219.100
41,0.410,0.799,0.411,-65.940,18.480,-236.600
41,0.310,1.085,0.350,-59.290,9.660,-205.520
41,0.267,1.203,0.324,-72.660,10.570,-156.310
41,0.272,1.421,0.423,-50.750,11.270,-105.910
41,0.281,1.449,0.379,-32.480,4.480,-42.630
41,0.283,1.130,0.417,-18.550,2.100,-10.150
41,0.291,0.924,0.436,-11.340,-4.900,-4.340
41,0.292,0.900,0.427,-2.940,-9.380,-8.610
41,0.268,0.960,0.375,-3.360,-9.310,-3.010
41,0.253,1.012,0.371,-8.540,-10.010,7.210
41,0.245,1.008,0.356,-15.540,-8.890,19.530
41,0.255,0.960,0.333,-35.070,0.560,29.750
41,0.287,0.916,0.415,-44.240,7.140,35.770
41,0.297,0.916,0.510,-41.090,-0.630,35.420
42,0.570,-0.868,0.430,19.110,-10.290,-0.070
42,0.587,-0.782,0.469,23.940,-17.220,-4.690
42,0.597,-0.887,0.498,17.150,-21.210,-18.270
42,0.600,-1.039,0.479,3.360,-28.840,-51.870
42,0.613,-1.106,0.453,-0.770,-29.050,-106.190
42,0.644,-0.641,0.523,0.840,-33.670,-123.830
42,0.649,-0.649,0.463,-1.960,-43.400,-120.470
42,0.665,-0.546,0.371,-15.680,-57.540,-113.680
42,0.710,-0.535,0.354,-18.760,-59.290,-107.660
42,0.753,-0.513,0.270,-26.460,-53.340,-98.070
42,0.793,-0.420,0.280,-45.780,-52.430,-90.300
42,0.806,-0.403,0.257,-38.710,-43.400,-89.320
42,0.837,-0.395,0.194,-42.490,-41.370,-88.830
42,0.884,-0.463,0.163,-59.220,-35.980,-100.380
42,0.928,-0.337,0.245,-41.020,-40.460,-100.170
42,0.901,-0.280,0.130,-46.130,-40.670,-98.280
42,0.923,-0.322,0.077,-42.280,-35.420,-102.550
42,0.936,-0.194,0.110,-36.820,-29.120,-108.080
42,0.952,-0.099,0.108,-30.870,-22.470,-96.950
42,0.945,-0.160,0.043,-39.130,-20.510,-100.100
42,0.953,-0.017,0.078,-33.040,-19.530,-99.400
42,0.981,-0.033,0.076,-37.730,-16.240,-99.260
42,0.960,0.000,0.051,-41.510,-17.640,-97.580
42,0.972,-0.052,0.038,-45.920,-12.600,-111.370
42,0.947,0.145,0.115,-58.170,-15.190,-121.240
42,0.941,0.308,0.047,-50.960,-13.300,-99.750
42,0.924,0.260,0.064,-51.450,-9.240,-90.930
42,0.934,0.262,0.063,-38.710,0.490,-95.970
42,0.914,0.379,0.062,-39.200,0.070,-91.840
42,0.910,0.396,0.141,-25.060,0.770,-84.350
42,0.881,0.470,0.092,-18.690,2.310,-77.910
42,0.892,0.440,0.110,-7.980,3.710,-72.940
42,0.888,0.444,0.118,-8.540,3.920,-77.420
42,0.877,0.498,0.132,-6.720,2.030,-78.960
42,0.847,0.461,0.135,-16.940,-3.780,-85.050
42,0.838,0.516,0.153,-20.930,-9.450,-96.460
42,0.791,0.457,0.128,-48.160,-14.910,-114.660
42,0.740,0.391,0.076,-45.360,1.960,-145.810
42,0.686,0.417,0.251,-45.640,-1.120,-185.290
42,0.566,0.619,0.395,-68.950,-26.880,-216.090
42,0.412,0.816,0.223,-90.650,-42.840,-202.650
42,0.335,0.952,0.261,-92.610,-31.990,-197.260
42,0.230,1.363,0.213,-79.730,-14.210,-150.220
42,0.195,1.520,0.303,-57.540,1.820,-65.240
42,0.258,1.235,0.343,-54.180,-2.660,-2.590
42,0.311,1.018,0.367,-54.600,-11.900,25.270
42,0.353,0.817,0.372,-39.760,-19.950,22.050
42,0.340,0.853,0.309,-26.530,-15.470,12.670
42,0.343,0.912,0.333,-19.880,-5.040,17.640
42,0.377,0.905,0.401,-12.880,-4.130,24.500
43,0.789,-0.683,0.179,25.760,-12.110,13.160
43,0.782,-0.673,0.169,22.330,-13.230,10.780
43,0.769,-0.825,0.205,20.510,-14.210,-2.870
43,0.775,-0.832,0.188,3.010,-15.680,-27.580
43,0.787,-0.870,0.215,-16.800,-16.520,-56.770
43,0.773,-0.833,0.162,-23.660,-14.140,-90.650
43,0.782,-0.700,0.174,-7.700,-12.530,-121.310
43,0.784,-0.531,0.160,2.730,-15.470,-133.350
43,0.818,-0.429,0.079,-14.560,-24.080,-115.990
43,0.834,-0.510,0.056,-2.800,-17.780,-125.370
43,0.874,-0.404,0.109,-13.930,-23.030,-131.530
43,0.892,-0.224,0.086,-19.880,-25.900,-127.260
43,0.906,-0.197,0.076,0.070,-27.650,-124.600
43,0.915,-0.181,0.061,-19.320,-32.830,-135.800
43,0.985,-0.184,0.056,-47.180,-35.560,-132.650
43,0.997,0.026,0.138,-64.960,-35.700,-91.280
43,0.976,0.028,0.045,-113.890,-30.450,-95.480
43,0.948,0.022,-0.015,-97.650,-18.760,-99.470
43,0.955,0.170,-0.030,-64.820,-18.830,-94.500
43,0.935,0.064,-0.102,-3.290,4.410,-96.880
43,0.926,0.076,-0.037,19.180,19.390,-113.680
43,0.921,0.210,0.041,13.860,20.930,-119.560
43,0.917,0.350,0.089,1.960,14.000,-114.310
43,0.874,0.337,0.057,-15.260,7.350,-115.080
43,0.860,0.390,0.068,-33.880,3.990,-120.260
43,0.851,0.530,0.090,-43.960,-4.900,-121.800
43,0.803,0.738,0.038,-40.810,-9.660,-105.560
43,0.794,0.787,0.041,-52.780,-3.640,-65.730
43,0.791,0.632,0.103,-71.540,-7.210,-50.960
43,0.791,0.586,0.157,-47.670,-12.600,-50.400
43,0.784,0.514,0.100,-21.070,-12.670,-60.130
43,0.778,0.530,0.191,-33.670,-20.160,-75.040
43,0.742,0.509,0.117,-10.850,-8.120,-102.480
43,0.705,0.574,0.157,-19.880,-7.770,-121.240
43,0.628,0.612,0.182,-156.520,-2.800,-129.920
43,0.521,0.406,0.137,-174.790,11.130,-184.450
43,0.501,0.760,0.385,-110.740,45.010,-214.970
43,0.361,0.813,0.282,-81.830,21.910,-224.840
43,0.234,1.098,0.212,-27.580,29.750,-188.930
43,0.102,1.401,0.350,14.140,24.430,-131.810
43,0.090,1.426,0.312,5.110,30.870,-58.870
43,0.167,1.277,0.482,-2.380,22.190,-14.560
43,0.228,1.172,0.470,12.390,0.140,32.970
43,0.235,0.972,0.439,10.430,-8.680,45.780
43,0.276,0.850,0.376,-3.710,-0.630,35.350
43,0.308,0.856,0.396,-3.570,-1.470,24.220
43,0.323,0.882,0.428,0.420,-6.790,17.010
43,0.316,0.864,0.399,-9.660,-11.830,10.080
43,0.299,0.926,0.362,-15.960,-17.290,9.800
43,0.279,0.930,0.307,-19.880,-14.280,15.890
44,0.466,-0.622,0.627,5.250,-4.760,8.190
44,0.464,-0.700,0.595,5.740,-4.200,7.280
44,0.460,-0.663,0.650,8.610,-5.110,8.050
44,0.458,-0.678,0.649,9.590,-6.160,11.340
44,0.459,-0.740,0.665,10.500,-10.430,5.880
44,0.469,-0.804,0.719,11.760,-20.300,-7.770
44,0.468,-0.827,0.665,19.880,-28.350,-26.740
44,0.492,-0.866,0.679,20.230,-38.220,-55.440
44,0.507,-0.832,0.617,13.020,-38.990,-90.230
44,0.572,-0.669,0.684,8.890,-49.910,-109.130
44,0.543,-0.641,0.602,5.740,-51.870,-119.420
44,0.602,-0.505,0.523,-15.610,-43.960,-135.100
44,0.637,-0.342,0.626,13.370,-42.700,-138.460
44,0.680,-0.456,0.566,9.660,-52.920,-126.070
44,0.743,-0.472,0.549,9.030,-36.470,-133.770
44,0.701,-0.449,0.377,13.300,-22.190,-162.890
44,0.730,-0.203,0.588,27.510,-18.550,-152.040
44,0.773,-0.135,0.508,21.840,-29.400,-134.890
44,0.839,-0.243,0.465,25.480,-8.960,-139.930
44,0.770,-0.142,0.488,-7.560,-8.330,-170.450
44,0.754,0.076,0.400,21.770,0.070,-152.600
44,0.696,0.086,0.317,63.070,25.760,-160.580
44,0.781,0.057,0.602,24.080,2.520,-147.070
44,0.721,0.310,0.491,55.930,28.350,-148.610
44,0.673,0.519,0.484,83.930,24.430,-128.870
44,0.698,0.488,0.533,103.040,33.390,-112.070
44,0.681,0.487,0.536,78.050,29.260,-106.400
44,0.656,0.527,0.517,49.210,26.180,-106.960
44,0.630,0.613,0.545,31.080,19.880,-106.610
44,0.615,0.640,0.555,18.200,13.300,-99.120
44,0.587,0.539,0.478,-1.960,8.820,-95.970
44,0.574,0.613,0.530,-15.610,2.170,-108.360
44,0.516,0.656,0.489,-10.640,4.620,-112.000
44,0.450,0.663,0.531,-0.490,21.140,-111.790
44,0.386,0.671,0.460,-8.820,21.280,-115.710
44,0.353,0.815,0.509,-7.980,31.710,-110.880
44,0.305,0.847,0.601,-2.450,32.340,-99.890
44,0.255,0.979,0.546,30.030,29.750,-75.950
44,0.215,0.957,0.604,32.270,33.950,-48.580
44,0.367,0.946,0.653,22.960,19.880,-32.900
44,0.246,0.940,0.589,14.140,13.160,-16.800
44,0.248,0.933,0.582,8.330,5.110,-5.670
44,0.225,0.927,0.562,10.710,-0.490,3.500
44,0.211,0.854,0.517,6.720,-4.060,11.060
44,0.234,0.833,0.528,-0.280,-5.460,11.060
44,0.226,0.844,0.532,1.190,-4.270,11.480
44,0.244,0.811,0.537,3.920,-2.590,8.540
44,0.252,0.817,0.547,2.800,-2.870,7.560
44,0.252,0.815,0.550,0.910,-4.620,6.090
44,0.262,0.811,0.552,-2.800,-6.580,1.890
45,0.543,-0.835,0.428,6.510,-12.110,-7.840
45,0.562,-0.874,0.504,15.260,-14.840,-21.770
45,0.580,-0.907,0.454,19.040,-18.130,-43.400
45,0.590,-0.887,0.482,22.610,-14.840,-69.230
45,0.617,-0.876,0.521,23.660,-20.370,-102.130
45,0.597,-0.897,0.350,15.260,-10.430,-146.230
45,0.642,-0.553,0.522,31.430,-4.270,-169.820
45,0.677,-0.401,0.456,20.300,-16.380,-162.610
45,0.711,-0.569,0.476,-2.590,-20.580,-174.090
45,0.764,-0.356,0.548,-8.330,-33.180,-176.400
45,0.772,-0.306,0.437,-41.860,-38.010,-175.350
45,0.810,-0.174,0.485,-39.970,-42.700,-168.770
45,0.818,-0.040,0.354,-39.970,-38.990,-144.060
45,0.843,-0.060,0.317,-27.160,-30.590,-137.480
45,0.880,-0.054,0.351,-36.260,-26.880,-128.730
45,0.868,-0.044,0.274,-29.680,-11.410,-125.160
45,0.865,-0.074,0.335,-41.860,-5.600,-137.480
45,0.841,0.134,0.390,-4.410,8.400,-148.050
45,0.828,0.266,0.426,-2.730,3.570,-132.790
45,0.848,0.118,0.265,10.850,9.520,-135.940
45,0.811,0.152,0.308,1.680,20.300,-166.740
45,0.753,0.547,0.362,7.910,28.210,-165.410
45,0.730,0.571,0.353,28.770,38.360,-143.150
45,0.726,0.456,0.382,9.870,31.990,-130.200
45,0.663,0.402,0.471,10.290,35.210,-163.590
45,0.532,0.722,0.549,14.700,26.250,-166.530
45,0.764,0.926,0.462,-62.790,29.190,-161.840
45,0.609,0.670,0.484,-55.230,39.270,-121.030
45,0.480,0.583,0.418,-60.550,36.400,-130.900
45,0.401,0.690,0.583,-65.100,58.170,-147.070
45,0.339,0.603,0.651,-73.290,35.840,-157.430
45,0.325,0.708,0.572,-36.050,39.480,-172.410
45,0.085,0.889,0.764,0.490,38.500,-172.690
45,0.045,1.247,0.742,-1.260,23.730,-110.110
45,0.138,0.967,0.749,-14.000,9.380,-68.250
45,0.115,0.884,0.642,-16.030,-7.070,-50.190
45,0.048,1.056,0.601,2.100,6.300,-24.220
45,0.087,0.846,0.636,15.190,13.720,-7.770
45,0.095,0.811,0.662,15.820,3.990,-8.400
45,0.062,0.839,0.636,19.320,1.680,-11.130
45,0.049,0.883,0.594,20.020,5.180,-1.750
45,0.061,0.796,0.606,14.210,7.420,3.430
45,0.071,0.794,0.588,6.160,5.110,-6.090
45,0.060,0.863,0.584,1.680,-0.140,-2.240
45,0.051,0.875,0.605,5.600,2.100,4.690
45,0.062,0.838,0.570,5.950,8.540,10.150
45,0.061,0.874,0.625,2.870,6.090,15.680
45,0.070,0.843,0.629,-1.190,-2.730,18.900
45,0.078,0.833,0.634,-9.660,-9.660,20.160
45,0.114,0.893,0.581,-24.220,-17.850,26.180
46,0.450,-0.844,0.500,-3.430,-8.750,0.630
46,0.453,-0.856,0.504,-11.410,-2.940,-14.210
46,0.464,-0.808,0.566,-17.080,-5.250,-23.380
46,0.486,-0.796,0.595,-15.960,-10.150,-22.260
46,0.473,-0.909,0.579,-18.410,-26.670,-39.410
46,0.482,-0.952,0.496,-14.140,-22.330,-69.020
46,0.510,-0.901,0.440,11.760,-7.980,-99.470
46,0.557,-0.648,0.549,27.300,-18.200,-104.510
46,0.554,-0.655,0.469,37.660,-22.120,-97.790
46,0.593,-0.744,0.456,31.080,-17.990,-115.080
46,0.646,-0.411,0.523,44.450,-9.100,-106.750
46,0.672,-0.502,0.488,15.610,-15.400,-92.260
46,0.705,-0.473,0.453,9.450,-20.720,-87.290
46,0.731,-0.402,0.458,11.970,-13.650,-81.270
46,0.748,-0.540,0.508,-24.290,-20.860,-88.200
46,0.761,-0.444,0.437,-34.790,-13.510,-102.620
46,0.783,-0.362,0.490,-61.740,-19.390,-106.330
46,0.805,-0.425,0.393,-103.600,-32.550,-125.230
46,0.834,-0.363,0.421,-112.630,-24.640,-144.270
46,0.822,-0.335,0.330,-99.820,-17.150,-154.070
46,0.824,-0.262,0.311,-16.380,21.630,-163.450
46,0.841,-0.051,0.256,2.660,32.410,-154.630
46,0.851,-0.041,0.440,-0.700,31.500,-141.540
46,0.846,-0.085,0.451,7.700,34.300,-152.460
46,0.838,0.120,0.393,0.630,39.060,-155.330
46,0.816,0.225,0.510,21.000,38.780,-138.040
46,0.816,0.153,0.420,5.390,41.090,-127.400
46,0.789,0.136,0.510,4.270,52.500,-145.320
46,0.751,0.350,0.584,-4.130,41.930,-153.930
46,0.726,0.444,0.542,3.920,36.540,-141.960
46,0.689,0.442,0.563,12.390,43.400,-127.190
46,0.685,0.594,0.625,4.830,24.780,-121.870
46,0.606,0.640,0.553,5.320,15.050,-100.240
46,0.747,0.607,0.586,8.260,17.220,-70.910
46,0.684,0.561,0.407,6.580,50.050,-61.530
46,0.647,0.503,0.622,12.880,41.020,-55.720
46,0.488,0.676,0.612,12.390,41.020,-47.950
46,0.499,0.610,0.575,29.820,35.490,-41.300
46,0.542,0.400,0.600,3.010,25.410,-64.750
46,0.540,0.428,0.747,-27.020,11.270,-94.990
46,0.416,0.630,0.528,-27.860,6.650,-118.370
46,0.295,0.604,0.447,38.500,41.370,-116.340
46,0.447,0.585,0.592,25.270,68.670,-129.570
46,0.244,0.414,0.780,-0.560,48.650,-185.080
46,0.020,0.809,0.548,-3.710,33.880,-186.130
46,-0.114,1.121,0.687,24.850,61.110,-147.910
46,-0.135,1.263,0.895,27.440,45.990,-93.590
46,-0.083,1.030,0.817,-8.190,2.730,-44.800
46,-0.038,0.928,0.672,-11.830,-5.950,-35.980
46,-0.059,0.897,0.576,2.030,-4.480,-28.140
47,0.312,-0.833,0.651,-17.220,-16.660,5.600
47,0.313,-0.871,0.689,-20.580,-22.890,-6.160
47,0.302,-0.960,0.719,-28.350,-30.170,-27.650
47,0.326,-0.942,0.723,-40.110,-44.590,-57.540
47,0.335,-1.015,0.665,-81.340,-51.450,-95.550
47,0.400,-0.861,0.560,-89.320,-49.420,-122.920
47,0.440,-0.766,0.469,-72.940,-41.510,-139.020
47,0.485,-0.847,0.416,-63.770,-38.150,-146.580
47,0.467,-0.915,0.235,-61.670,-14.840,-186.550
47,0.536,-0.759,0.441,-41.160,-5.110,-221.340
47,0.619,-0.453,0.556,-60.760,-38.150,-225.820
47,0.682,-0.482,0.401,-39.200,-50.120,-223.440
47,0.745,-0.542,0.289,-62.370,-31.430,-211.050
47,0.752,-0.423,0.304,-80.430,-35.770,-238.630
47,0.818,-0.075,0.357,-40.320,-34.300,-223.860
47,0.866,-0.045,0.277,-9.030,-18.340,-190.400
47,0.898,-0.122,0.195,-9.170,-12.810,-180.530
47,0.847,0.174,0.311,-13.510,-7.630,-179.060
47,0.844,0.235,0.219,-19.740,-11.130,-161.630
47,0.879,0.111,0.255,-25.970,-10.430,-149.660
47,0.904,0.247,0.235,-22.820,-11.900,-142.100
47,0.834,0.468,0.228,-0.910,-10.010,-122.290
47,0.853,0.381,0.198,14.140,-1.610,-104.580
47,0.873,0.375,0.244,10.500,0.700,-109.270
47,0.812,0.439,0.196,7.420,4.970,-114.170
47,0.793,0.546,0.272,15.890,8.330,-107.800
47,0.788,0.532,0.307,16.870,5.390,-112.070
47,0.725,0.518,0.323,-17.150,-9.940,-118.580
47,0.745,0.647,0.365,-24.990,-20.230,-134.470
47,0.658,0.568,0.195,-14.840,-34.650,-142.870
47,0.542,0.667,0.105,26.530,-5.390,-165.060
47,0.466,0.670,0.049,51.870,31.640,-186.830
47,0.462,0.793,0.203,37.310,32.760,-193.340
47,0.359,0.587,0.074,12.530,33.250,-208.390
47,0.220,0.732,0.222,10.220,39.830,-238.350
47,0.104,0.947,0.376,6.510,27.650,-236.880
47,-0.014,1.153,0.419,-2.310,-6.510,-205.730
47,-0.137,1.200,0.281,-9.030,-19.950,-163.800
47,-0.220,1.342,0.234,-14.210,-13.440,-115.990
47,-0.225,1.311,0.230,-20.930,-8.190,-58.240
47,-0.176,1.142,0.263,-15.050,-8.820,-30.870
47,-0.157,1.055,0.245,-9.240,-8.820,-16.520
47,-0.140,1.031,0.241,-3.710,-9.030,-7.560
47,-0.128,0.993,0.260,1.890,-7.560,-2.940
47,-0.127,1.021,0.285,1.050,-6.930,5.250
47,-0.118,1.025,0.299,-4.270,-9.450,11.830
47,-0.126,1.030,0.315,-7.490,-12.040,18.970
47,-0.129,1.031,0.261,-5.390,-8.960,25.620
47,-0.119,1.049,0.264,-9.660,-6.160,36.680
47,-0.112,1.054,0.260,-14.770,0.140,52.010
48,0.367,-0.660,0.652,-5.950,-11.760,15.890
48,0.366,-0.659,0.636,2.660,-5.530,19.670
48,0.361,-0.715,0.707,9.520,-2.030,18.900
48,0.348,-0.811,0.736,8.400,-13.440,5.600
48,0.323,-0.924,0.686,-4.830,-11.200,-26.250
48,0.342,-0.845,0.778,-20.580,-11.760,-55.440
48,0.347,-0.962,0.766,-39.690,-28.840,-95.900
48,0.417,-0.764,0.707,-23.730,-41.580,-129.080
48,0.501,-0.636,0.774,5.740,-56.840,-134.680
48,0.508,-0.617,0.509,22.050,-64.540,-130.410
48,0.519,-0.681,0.605,7.910,-73.990,-155.050
48,0.558,-0.521,0.537,-5.670,-65.450,-171.150
48,0.637,-0.335,0.561,-8.120,-66.570,-157.080
48,0.692,-0.390,0.597,-39.830,-72.310,-149.940
48,0.742,-0.424,0.564,-55.160,-60.620,-166.110
48,0.786,-0.284,0.544,-73.500,-74.480,-155.610
48,0.806,-0.300,0.378,-80.990,-66.150,-153.510
48,0.810,-0.234,0.358,-95.480,-59.360,-161.210
48,0.859,-0.118,0.393,-74.970,-43.540,-151.830
48,0.880,-0.021,0.353,-86.380,-40.040,-143.080
48,0.961,-0.105,0.211,-55.230,-20.230,-133.210
48,0.811,0.217,0.175,-5.880,21.560,-163.940
48,0.858,0.374,0.350,35.070,28.560,-119.840
48,0.849,0.277,0.264,49.280,46.550,-92.750
48,0.921,0.258,0.383,62.930,53.830,-80.990
48,0.859,0.302,0.343,74.060,57.120,-82.460
48,0.856,0.366,0.438,109.340,63.490,-87.080
48,0.814,0.313,0.451,107.240,51.660,-110.740
48,0.816,0.410,0.564,89.950,32.550,-127.470
48,0.688,0.529,0.451,46.620,8.610,-126.770
48,0.725,0.646,0.455,7.070,-1.750,-110.740
48,0.706,0.561,0.353,-8.470,-4.410,-99.610
48,0.702,0.543,0.444,-4.620,-12.600,-106.330
48,0.605,0.723,0.354,-14.700,11.060,-74.830
48,0.548,0.679,0.329,-29.820,20.790,-65.660
48,0.569,0.577,0.456,-35.350,21.700,-74.760
48,0.507,0.706,0.548,-54.180,11.270,-95.830
48,0.474,0.869,0.416,-31.010,-5.810,-93.590
48,0.497,0.752,0.568,24.920,8.120,-88.760
48,0.558,0.780,0.367,-37.030,11.340,-95.970
48,0.419,0.758,0.518,-17.010,6.720,-103.180
48,0.333,0.756,0.471,-19.740,11.690,-99.820
48,0.313,0.675,0.549,-38.920,9.030,-119.980
48,0.237,0.635,0.518,-43.050,7.630,-147.280
48,0.132,0.970,0.621,-32.480,4.200,-142.590
48,-0.001,0.960,0.513,-20.300,20.860,-124.600
48,0.068,0.911,0.618,-29.890,19.670,-110.320
48,0.030,0.983,0.728,-14.350,12.880,-95.410
48,-0.068,1.053,0.618,-1.890,-0.350,-58.870
48,-0.053,0.903,0.539,0.070,7.140,-37.380
49,0.449,-0.718,0.547,4.130,-13.580,4.550
49,0.460,-0.712,0.587,7.910,-14.700,4.200
49,0.484,-0.796,0.641,8.960,-25.760,-0.700
49,0.489,-0.851,0.649,1.540,-36.610,-19.740
49,0.505,-0.790,0.615,0.910,-39.900,-36.260
49,0.540,-0.758,0.650,6.090,-51.240,-34.720
49,0.497,-0.799,0.497,-1.120,-56.700,-42.490
49,0.522,-0.810,0.527,-15.470,-52.640,-60.690
49,0.526,-0.833,0.535,-28.840,-61.810,-82.530
49,0.579,-0.666,0.514,-22.190,-62.510,-88.900
49,0.600,-0.677,0.462,-50.540,-69.580,-88.970
49,0.641,-0.665,0.362,-59.500,-62.650,-99.680
49,0.695,-0.671,0.392,-39.690,-46.270,-111.440
49,0.720,-0.585,0.284,-75.600,-54.040,-125.020
49,0.726,-0.471,0.334,-85.680,-44.870,-131.950
49,0.726,-0.631,0.084,-107.870,-45.500,-153.020
49,0.789,-0.599,0.029,-114.310,-4.690,-194.320
49,0.794,-0.156,0.273,-49.630,14.840,-201.600
49,0.878,-0.070,0.290,-37.380,1.890,-163.100
49,0.914,-0.184,0.150,-39.410,7.560,-142.520
49,0.925,-0.169,0.206,-38.570,19.390,-148.890
49,0.901,0.084,0.297,-34.510,19.670,-131.530
49,0.963,-0.010,0.277,-18.480,9.520,-119.560
49,0.980,-0.138,0.267,-44.870,1.400,-138.180
49,0.904,0.008,0.183,-26.460,21.210,-174.370
49,0.869,0.314,0.339,-24.290,14.910,-166.180
49,0.883,0.295,0.269,-8.890,13.930,-152.880
49,0.853,0.376,0.288,2.660,19.180,-142.870
49,0.794,0.423,0.161,14.910,30.380,-132.160
49,0.758,0.409,0.217,38.360,46.900,-136.360
49,0.698,0.630,0.335,62.090,50.120,-141.400
49,0.620,0.618,0.329,46.340,52.360,-128.940
49,0.594,0.636,0.284,35.630,48.930,-142.660
49,0.544,0.621,0.381,54.460,34.930,-164.570
49,0.520,0.924,0.295,52.920,24.430,-158.340
49,0.521,0.720,0.378,9.800,15.680,-136.360
49,0.450,0.628,0.284,-0.420,3.430,-167.860
49,0.320,0.865,0.370,0.350,-10.430,-193.760
49,0.205,0.893,0.329,-26.810,-19.880,-193.830
49,0.121,0.582,0.242,-26.810,1.120,-216.650
49,-0.092,0.811,0.127,-7.910,24.360,-266.980
49,-0.122,1.132,0.346,-35.350,27.020,-226.380
49,-0.214,1.013,0.368,-62.860,17.920,-199.710
49,-0.360,1.175,0.384,-57.890,9.590,-184.800
49,-0.439,1.183,0.542,-41.440,17.150,-131.670
49,-0.425,1.099,0.602,-40.950,-10.430,-74.830
49,-0.407,1.002,0.515,-36.680,-31.010,-45.220
49,-0.471,1.044,0.405,-19.740,-26.740,-16.870
49,-0.430,1.047,0.427,-7.910,-17.850,17.640
49,-0.390,0.936,0.436,2.030,-16.240,40.180
50,0.270,-0.720,0.677,6.370,0.000,5.180
50,0.276,-0.719,0.699,8.540,-3.220,7.000
50,0.285,-0.751,0.694,9.730,-4.270,5.880
50,0.312,-0.782,0.697,7.560,-3.570,-1.680
50,0.282,-0.802,0.766,15.400,-5.180,-6.650
50,0.265,-0.888,0.753,15.540,-20.790,-24.640
50,0.246,-0.846,0.711,10.850,-29.680,-42.350
50,0.212,-0.953,0.597,-0.980,-23.940,-72.100
50,0.258,-0.737,0.630,9.730,-14.560,-105.420
50,0.349,-0.541,0.740,24.010,-22.190,-90.230
50,0.393,-0.576,0.764,20.510,-44.170,-73.710
50,0.422,-0.643,0.713,11.340,-58.100,-73.710
50,0.453,-0.605,0.637,0.630,-49.910,-70.420
50,0.490,-0.596,0.649,-2.660,-50.330,-79.450
50,0.526,-0.516,0.650,-0.560,-52.150,-65.030
50,0.536,-0.671,0.597,-6.860,-53.340,-77.210
50,0.553,-0.743,0.591,-15.260,-42.910,-112.000
50,0.636,-0.427,0.647,-7.770,-45.220,-129.220
50,0.656,-0.401,0.629,-2.100,-55.580,-113.960
50,0.702,-0.525,0.560,-20.160,-56.910,-117.460
50,0.704,-0.542,0.502,-38.430,-53.550,-144.270
50,0.761,-0.310,0.579,-33.670,-55.860,-162.190
50,0.810,-0.253,0.451,-14.910,-38.640,-124.740
50,0.788,-0.389,0.398,-51.450,-43.330,-140.490
50,0.795,-0.226,0.367,-51.100,-29.400,-159.250
50,0.809,-0.069,0.423,-37.940,-15.400,-151.130
50,0.857,0.006,0.380,-41.720,-8.400,-140.350
50,0.879,0.019,0.432,-25.970,6.650,-140.700
50,0.860,0.114,0.372,-17.500,9.730,-144.340
50,0.835,0.019,0.469,-35.280,27.230,-165.830
50,0.842,0.281,0.476,-31.920,15.330,-208.950
50,0.847,0.461,0.548,29.890,21.980,-108.500
50,0.830,0.308,0.488,17.920,12.180,-98.490
50,0.817,0.321,0.374,10.990,25.130,-113.330
50,0.773,0.412,0.488,30.310,3.500,-119.140
50,0.725,0.473,0.449,29.820,2.100,-117.040
50,0.681,0.461,0.488,23.660,-1.330,-112.980
50,0.709,0.544,0.517,12.110,-5.460,-113.120
50,0.651,0.597,0.446,10.920,-7.630,-116.480
50,0.607,0.675,0.474,7.280,-5.740,-99.260
50,0.615,0.508,0.473,-13.930,-9.520,-111.370
50,0.588,0.555,0.399,-23.100,-6.580,-136.430
50,0.452,0.832,0.393,-22.750,5.390,-141.820
50,0.432,0.773,0.502,-24.500,13.930,-126.420
50,0.407,0.602,0.424,-26.530,20.860,-144.340
50,0.301,0.594,0.531,-17.570,6.230,-191.800
50,0.110,1.164,0.607,-24.850,23.870,-176.680
50,0.137,1.057,0.567,-22.120,30.450,-107.170
50,0.128,0.826,0.499,-26.110,23.870,-99.470
50,0.069,0.993,0.584,-18.410,23.380,-95.690
51,0.732,-0.509,0.417,12.600,-9.240,17.080
51,0.709,-0.527,0.361,12.460,-4.970,27.580
51,0.705,-0.501,0.368,16.380,-4.270,41.790
51,0.704,-0.626,0.404,13.650,-3.010,39.900
51,0.717,-0.637,0.436,11.760,-7.560,40.950
51,0.720,-0.713,0.501,18.830,-17.570,34.230
51,0.708,-0.696,0.426,21.980,-26.040,26.950
51,0.671,-0.770,0.370,21.420,-19.670,16.870
51,0.653,-0.831,0.339,14.910,-8.400,-5.880
51,0.699,-0.656,0.516,35.770,-2.870,-16.310
51,0.700,-0.741,0.505,17.780,-21.000,-22.330
51,0.716,-0.708,0.489,15.260,-33.880,-38.010
51,0.718,-0.626,0.453,14.350,-42.420,-38.990
51,0.735,-0.520,0.487,34.020,-47.810,-35.630
51,0.760,-0.677,0.488,32.760,-70.770,-40.460
51,0.729,-0.564,0.417,15.610,-77.280,-44.730
51,0.725,-0.593,0.346,1.610,-72.660,-46.480
51,0.775,-0.522,0.308,-2.730,-65.380,-45.010
51,0.819,-0.529,0.301,-8.960,-53.410,-43.680
51,0.839,-0.528,0.276,-23.100,-51.660,-42.840
51,0.810,-0.653,0.228,-24.990,-50.120,-58.730
51,0.824,-0.513,0.207,-30.660,-36.400,-78.960
51,0.839,-0.494,0.164,-39.200,-30.450,-94.920
51,0.798,-0.527,0.079,-45.010,-8.050,-125.650
51,0.818,-0.474,0.185,-46.480,9.030,-170.310
51,0.800,-0.369,0.151,-66.780,20.510,-214.690
51,0.796,-0.188,0.193,-76.650,35.560,-251.090
51,0.852,0.187,0.291,-68.600,35.070,-222.530
51,0.842,0.125,0.299,-102.270,21.140,-193.200
51,0.896,0.169,0.409,-96.250,18.060,-189.980
51,0.886,0.346,0.342,-96.600,12.460,-181.370
51,0.843,0.330,0.263,-59.150,19.810,-169.330
51,0.805,0.265,0.275,-50.050,27.160,-176.610
51,0.791,0.674,0.342,-9.100,28.910,-145.320
51,0.746,0.645,0.362,13.790,17.710,-113.820
51,0.734,0.394,0.275,17.080,21.560,-126.770
51,0.513,0.642,0.414,16.520,14.420,-150.990
51,0.571,0.869,0.350,29.260,16.100,-129.640
51,0.635,0.671,0.415,3.430,1.750,-114.660
51,0.588,0.609,0.328,7.560,-0.420,-143.290
51,0.495,0.782,0.466,2.240,-11.130,-158.200
51,0.428,0.802,0.362,-3.290,-6.160,-154.210
51,0.391,0.668,0.241,-20.300,1.050,-174.860
51,0.256,0.859,0.271,-25.900,16.380,-209.650
51,0.067,0.977,0.448,-28.980,14.210,-209.160
51,-0.008,1.134,0.481,-42.700,4.060,-174.090
51,-0.069,1.148,0.428,-28.770,1.750,-137.620
51,-0.034,1.143,0.538,-20.370,-10.570,-116.550
51,-0.068,1.226,0.450,-26.110,-28.140,-64.610
51,-0.060,1.131,0.426,-10.360,-26.740,-32.200
52,0.552,-0.692,0.475,5.390,-13.860,21.840
52,0.549,-0.684,0.468,10.500,-7.770,20.510
52,0.546,-0.722,0.508,5.600,-8.400,20.930
52,0.557,-0.759,0.502,6.020,-7.840,13.370
52,0.554,-0.772,0.512,4.410,-12.950,11.200
52,0.547,-0.938,0.504,-7.770,-9.800,-7.210
52,0.590,-0.885,0.630,-18.550,-20.090,-33.950
52,0.617,-0.795,0.591,-23.590,-35.630,-46.830
52,0.629,-0.880,0.537,-40.040,-44.240,-65.730
52,0.606,-0.926,0.413,-63.350,-44.100,-101.150
52,0.630,-0.682,0.407,-50.610,-28.280,-121.590
52,0.670,-0.581,0.453,-40.810,-41.580,-109.340
52,0.647,-0.704,0.208,-46.200,-28.840,-121.730
52,0.704,-0.605,0.276,-27.650,-3.500,-147.910
52,0.722,-0.438,0.277,-20.230,6.790,-146.790
52,0.772,-0.361,0.316,4.900,14.420,-144.200
52,0.825,-0.353,0.346,-11.200,5.390,-141.820
52,0.824,-0.486,0.285,-18.760,9.590,-141.330
52,0.863,-0.317,0.494,-57.050,5.810,-147.490
52,0.854,-0.134,0.482,-51.520,-1.470,-149.870
52,0.872,-0.155,0.407,-88.340,-16.100,-133.630
52,0.872,-0.024,0.340,-41.020,5.110,-135.800
52,0.913,-0.101,0.374,-66.570,-4.480,-134.820
52,0.877,-0.005,0.199,-32.970,19.460,-155.050
52,0.908,0.089,0.346,-30.800,26.180,-158.060
52,0.865,0.238,0.348,-10.080,40.810,-155.400
52,0.880,0.239,0.468,-48.650,30.100,-144.550
52,0.801,0.308,0.417,-59.010,24.150,-134.610
52,0.803,0.382,0.471,-35.000,26.250,-129.430
52,0.783,0.481,0.497,-31.290,14.910,-113.540
52,0.737,0.393,0.460,-19.320,11.130,-108.010
52,0.748,0.381,0.415,-27.440,1.120,-121.940
52,0.721,0.520,0.524,-11.340,-1.540,-129.780
52,0.716,0.485,0.471,0.210,-16.240,-143.570
52,0.575,0.648,0.422,5.390,-11.830,-157.360
52,0.569,0.645,0.523,-0.210,-23.940,-150.150
52,0.596,0.635,0.216,11.830,-1.260,-157.290
52,0.431,0.722,0.371,21.490,10.010,-175.140
52,0.361,1.055,0.545,0.980,20.160,-124.530
52,0.331,0.772,0.559,-40.740,8.050,-119.840
52,0.393,0.694,0.405,-41.720,20.930,-138.180
52,0.139,0.809,0.458,6.300,50.680,-142.170
52,0.181,0.764,0.610,-10.150,39.340,-114.940
52,0.173,0.768,0.489,-14.560,50.890,-126.420
52,0.066,1.026,0.546,-25.760,39.620,-128.310
52,-0.102,0.859,0.702,-35.770,14.840,-94.640
52,-0.018,0.832,0.587,-62.790,-8.680,-97.300
52,-0.108,1.038,0.603,-47.530,2.100,-65.590
52,-0.104,0.998,0.746,-41.230,-16.520,-25.200
52,-0.057,0.858,0.630,-45.220,-31.920,-33.950
53,0.748,-0.485,0.483,28.560,0.280,33.250
53,0.729,-0.645,0.394,15.820,-1.470,33.670
53,0.716,-0.442,0.432,22.960,3.640,47.040
53,0.707,-0.649,0.416,3.990,-1.120,56.910
53,0.704,-0.636,0.481,3.990,-3.920,50.680
53,0.667,-0.575,0.442,4.690,-4.690,54.180
53,0.632,-0.823,0.372,-6.860,-0.910,52.570
53,0.655,-0.834,0.508,3.710,-0.840,27.160
53,0.641,-0.979,0.474,-10.920,-0.490,-4.130
53,0.675,-0.866,0.559,-9.240,-10.290,-42.910
53,0.705,-0.749,0.635,-14.140,-29.120,-60.550
53,0.674,-0.926,0.418,-39.340,-39.060,-93.800
53,0.644,-0.849,0.252,-64.680,-25.410,-165.690
53,0.681,-0.397,0.344,-63.980,-13.300,-177.030
53,0.753,-0.346,0.445,-59.010,-47.530,-162.190
53,0.777,-0.631,0.179,-112.910,-56.630,-201.250
53,0.745,-0.186,0.168,-78.330,0.630,-214.970
53,0.837,-0.001,0.409,-67.060,-17.220,-163.520
53,0.880,-0.140,0.195,-57.540,-11.970,-148.750
53,0.910,-0.228,0.187,-67.550,-2.450,-153.650
53,0.870,-0.081,0.112,-32.200,35.840,-165.830
53,0.889,0.097,0.298,-25.830,39.340,-163.870
53,0.896,0.167,0.331,-17.850,32.620,-136.220
53,0.901,0.177,0.263,-28.560,31.150,-126.420
53,0.844,0.091,0.360,-45.430,27.370,-139.370
53,0.833,0.345,0.402,-25.130,33.950,-148.400
53,0.862,0.431,0.454,-24.710,12.460,-121.800
53,0.761,0.339,0.356,-45.780,2.310,-113.820
53,0.789,0.408,0.420,-27.230,15.330,-121.310
53,0.775,0.597,0.406,-21.630,12.110,-105.070
53,0.792,0.483,0.381,-12.880,10.150,-96.250
53,0.823,0.368,0.368,-31.920,9.380,-113.960
53,0.734,0.419,0.330,-23.380,27.230,-145.250
53,0.582,0.696,0.362,-28.840,31.010,-150.570
53,0.641,0.643,0.530,-40.880,17.150,-134.190
53,0.582,0.624,0.431,-83.090,-2.940,-122.080
